dateTime,BandAccX,BandAccY,BandAccZ,rate,rateZone
2024-06-06 11:59:14.317,-1124.25,3483.25,-1898.75,104,0.54
2024-06-06 11:59:14.528,-1136.4,3492.2,-1903.4,104,0.54
2024-06-06 11:59:14.724,-1113.6,3489.4,-1903.6,104,0.54
2024-06-06 11:59:14.950,-1092.0,3555.5,-1874.1666666666667,104,0.54
2024-06-06 11:59:15.131,-1302.2,3281.0,-2073.8,104,0.54
2024-06-06 11:59:15.325,-881.0,3754.2,-1411.8,104,0.54
2024-06-06 11:59:15.535,-1070.8333333333333,3669.0,-1798.5,104,0.54
2024-06-06 11:59:15.729,-857.8,3576.2,-1577.4,104,0.54
2024-06-06 11:59:15.928,186.8,3999.8,-966.2,104,0.54
2024-06-06 11:59:16.131,-111.16666666666667,4044.5,-997.6666666666666,104,0.54
2024-06-06 11:59:16.326,328.2,3993.8,-836.8,104,0.54
2024-06-06 11:59:16.521,891.6,4287.8,-1341.2,104,0.54
2024-06-06 11:59:16.780,743.5,3848.8333333333335,-1067.0,104,0.54
2024-06-06 11:59:16.926,949.2,4044.2,-599.0,104,0.54
2024-06-06 11:59:17.122,1309.6,4193.0,725.8,104,0.54
2024-06-06 11:59:17.316,559.8,3682.8,1170.8,104,0.54
2024-06-06 11:59:17.541,1352.6666666666667,3550.8333333333335,1522.0,103,0.54
2024-06-06 11:59:17.720,2754.8,2889.4,1819.8,103,0.54
2024-06-06 11:59:17.930,2491.8,2661.6,2772.8,103,0.54
2024-06-06 11:59:18.126,1698.6666666666667,2772.3333333333335,2938.6666666666665,103,0.54
2024-06-06 11:59:18.321,1759.4,2317.8,2906.6,103,0.54
2024-06-06 11:59:18.578,1816.2,2339.8,2674.2,103,0.54
2024-06-06 11:59:18.744,929.5,2539.0,2962.3333333333335,103,0.54
2024-06-06 11:59:18.940,1281.4,3411.0,1926.6,103,0.54
2024-06-06 11:59:19.119,1153.2,3742.4,1829.0,103,0.54
2024-06-06 11:59:19.317,1280.4,3202.0,2020.4,103,0.54
2024-06-06 11:59:19.525,1458.1666666666667,3534.6666666666665,1561.3333333333333,103,0.54
2024-06-06 11:59:19.718,1646.4,3405.0,1424.4,103,0.54
2024-06-06 11:59:19.928,1720.4,3545.8,1459.2,103,0.54
2024-06-06 11:59:20.123,1358.0,4259.666666666667,747.8333333333334,103,0.54
2024-06-06 11:59:20.400,2227.6,4302.0,368.6,103,0.54
2024-06-06 11:59:20.531,836.8,2306.2,946.6,103,0.54
2024-06-06 11:59:20.726,1732.0,2302.4,1354.8,103,0.54
2024-06-06 11:59:20.922,2874.5,4512.833333333333,246.16666666666666,103,0.54
2024-06-06 11:59:21.114,1433.4,3593.2,-884.4,103,0.54
2024-06-06 11:59:21.328,1453.8,3871.8,-1152.8,103,0.54
2024-06-06 11:59:21.519,2149.3333333333335,3558.8333333333335,-1148.0,99,0.52
2024-06-06 11:59:21.727,1565.8,3189.2,-2145.2,99,0.52
2024-06-06 11:59:21.953,2425.0,4063.0,-1515.6,99,0.52
2024-06-06 11:59:22.136,2167.0,2948.3333333333335,-1625.1666666666667,99,0.52
2024-06-06 11:59:22.312,2504.2,2950.8,-1270.6,99,0.52
2024-06-06 11:59:22.537,2214.0,3454.0,-553.8,99,0.52
2024-06-06 11:59:22.732,2502.6666666666665,3233.8333333333335,-312.3333333333333,99,0.52
2024-06-06 11:59:22.928,2802.8,2927.4,-615.8,99,0.52
2024-06-06 11:59:23.125,2441.4,3050.4,-1258.2,99,0.52
2024-06-06 11:59:23.317,2843.6,2748.4,-1143.2,99,0.52
2024-06-06 11:59:23.528,2775.1666666666665,2862.3333333333335,-1150.5,99,0.52
2024-06-06 11:59:23.726,2669.4,3023.4,-1060.0,99,0.52
2024-06-06 11:59:23.921,2526.4,2573.8,-1463.0,99,0.52
2024-06-06 11:59:24.129,2400.0,2541.1666666666665,-2167.1666666666665,99,0.52
2024-06-06 11:59:24.327,2437.8,2327.6,-2566.2,99,0.52
2024-06-06 11:59:24.521,2218.8,2408.8,-3049.2,99,0.52
2024-06-06 11:59:24.798,2029.6666666666667,2120.8333333333335,-3058.6666666666665,99,0.52
2024-06-06 11:59:24.925,2076.4,2234.4,-2864.2,99,0.52
2024-06-06 11:59:25.122,2202.0,2494.8,-2551.2,99,0.52
2024-06-06 11:59:25.347,2282.3333333333335,2384.0,-2702.8333333333335,99,0.52
2024-06-06 11:59:25.541,2235.6,2663.4,-2609.0,99,0.52
2024-06-06 11:59:25.736,1646.4,2780.8,-2379.4,99,0.52
2024-06-06 11:59:25.932,1704.2,2687.6,-2380.0,99,0.52
2024-06-06 11:59:26.125,2671.8333333333335,3362.5,-1076.8333333333333,99,0.52
2024-06-06 11:59:26.335,797.6,4626.4,-767.6,99,0.52
2024-06-06 11:59:26.531,1234.6,3038.6,532.4,99,0.52
2024-06-06 11:59:26.725,1415.0,3594.5,968.5,99,0.52
2024-06-06 11:59:26.969,1200.6,2922.2,2139.4,99,0.52
2024-06-06 11:59:27.132,1204.0,3857.6,1553.8,99,0.52
2024-06-06 11:59:27.323,1217.1666666666667,3619.5,1947.5,99,0.52
2024-06-06 11:59:27.583,1728.4,2983.2,2404.6,96,0.5
2024-06-06 11:59:27.729,1900.2,2134.8,2670.8,96,0.5
2024-06-06 11:59:27.978,2054.5,2346.0,2876.8333333333335,96,0.5
2024-06-06 11:59:28.121,2487.0,2342.0,2903.8,96,0.5
2024-06-06 11:59:28.344,2991.6,1925.8,2267.4,96,0.5
2024-06-06 11:59:28.572,2997.4,1647.4,2195.4,96,0.5
2024-06-06 11:59:28.721,2917.1666666666665,1554.6666666666667,1797.5,96,0.5
2024-06-06 11:59:28.930,2348.2,1269.4,2724.0,96,0.5
2024-06-06 11:59:29.126,1682.8,2535.4,3950.0,96,0.5
2024-06-06 11:59:29.337,831.6666666666666,1755.6666666666667,3493.6666666666665,96,0.5
2024-06-06 11:59:29.614,186.0,962.4,3697.0,96,0.5
2024-06-06 11:59:29.741,2052.6,189.6,3983.6,96,0.5
2024-06-06 11:59:29.923,1472.2,-134.6,3686.6,96,0.5
2024-06-06 11:59:30.130,1021.5,68.33333333333333,3996.3333333333335,96,0.5
2024-06-06 11:59:30.328,350.8,643.6,4285.8,96,0.5
2024-06-06 11:59:30.536,-397.0,717.0,4235.0,96,0.5
2024-06-06 11:59:30.729,873.6666666666666,245.83333333333334,3843.6666666666665,96,0.5
2024-06-06 11:59:30.922,1612.8,-439.0,3890.8,96,0.5
2024-06-06 11:59:31.166,1153.0,-387.4,3744.0,96,0.5
2024-06-06 11:59:31.331,1380.0,219.83333333333334,4169.833333333333,96,0.5
2024-06-06 11:59:31.524,640.4,494.2,5335.4,96,0.5
2024-06-06 11:59:31.720,-143.6,645.6,4314.4,96,0.5
2024-06-06 11:59:31.945,1060.8,559.0,3719.0,96,0.5
2024-06-06 11:59:32.141,156.16666666666666,294.8333333333333,4125.333333333333,96,0.5
2024-06-06 11:59:32.320,-113.0,979.4,4407.2,96,0.5
2024-06-06 11:59:32.531,1531.8,1213.6,3679.4,94,0.49
2024-06-06 11:59:32.741,1468.3333333333333,1861.5,3601.8333333333335,94,0.49
2024-06-06 11:59:32.921,1244.8,1098.8,3443.4,94,0.49
2024-06-06 11:59:33.133,1355.2,1309.0,3885.2,94,0.49
2024-06-06 11:59:33.369,808.0,1826.5,4256.5,94,0.49
2024-06-06 11:59:33.535,2154.6,918.6,3164.6,94,0.49
2024-06-06 11:59:33.730,429.2,904.6,4124.0,94,0.49
2024-06-06 11:59:33.956,758.1666666666666,1255.5,4221.5,94,0.49
2024-06-06 11:59:34.118,1785.2,993.2,3388.0,94,0.49
2024-06-06 11:59:34.330,1364.0,1165.0,3930.4,94,0.49
2024-06-06 11:59:34.523,-471.5,699.5,2684.3333333333335,94,0.49
2024-06-06 11:59:34.719,6249.8,339.6,-304.4,94,0.49
2024-06-06 11:59:34.931,-355.6,2227.8,5106.0,94,0.49
2024-06-06 11:59:35.137,1466.6,1175.2,5908.6,94,0.49
2024-06-06 11:59:35.339,1683.1666666666667,1454.5,3936.6666666666665,94,0.49
2024-06-06 11:59:35.531,1412.6,1225.4,3101.6,94,0.49
2024-06-06 11:59:35.727,1680.6,834.6,3742.8,94,0.49
2024-06-06 11:59:35.935,1068.5,1619.5,3862.0,94,0.49
2024-06-06 11:59:36.131,1363.4,684.2,3508.2,94,0.49
2024-06-06 11:59:36.327,1339.4,1070.0,4049.2,94,0.49
2024-06-06 11:59:36.518,929.6666666666666,2191.5,3614.5,94,0.49
2024-06-06 11:59:36.731,1432.2,632.0,3055.8,94,0.49
2024-06-06 11:59:37.008,1477.4,1797.0,3869.4,94,0.49
2024-06-06 11:59:37.151,1796.6666666666667,997.0,3409.1666666666665,94,0.49
2024-06-06 11:59:37.330,1260.8,1034.6,3885.4,94,0.49
2024-06-06 11:59:37.524,1439.0,1464.2,3671.0,94,0.49
2024-06-06 11:59:37.794,1766.8,819.8,3288.8,94,0.49
2024-06-06 11:59:37.973,1879.5,1279.3333333333333,3698.8333333333335,94,0.49
2024-06-06 11:59:38.126,1679.0,1259.8,3419.6,92,0.48
2024-06-06 11:59:38.331,1403.6,1274.0,3652.2,92,0.48
2024-06-06 11:59:38.528,1730.8333333333333,1728.1666666666667,3935.3333333333335,92,0.48
2024-06-06 11:59:38.725,1643.6,1036.0,3372.8,92,0.48
2024-06-06 11:59:38.994,1919.6,1258.0,3627.4,92,0.48
2024-06-06 11:59:39.130,1945.4,1235.4,3571.4,92,0.48
2024-06-06 11:59:39.327,1389.8333333333333,1431.6666666666667,3594.8333333333335,92,0.48
2024-06-06 11:59:39.518,1335.6,1062.6,3305.4,92,0.48
2024-06-06 11:59:39.743,1631.0,1632.0,3711.4,92,0.48
2024-06-06 11:59:39.972,1809.1666666666667,1263.0,3571.0,92,0.48
2024-06-06 11:59:40.120,1321.4,1468.0,3845.8,92,0.48
2024-06-06 11:59:40.330,1797.4,1370.6,3600.8,92,0.48
2024-06-06 11:59:40.530,1414.0,1843.0,3504.8333333333335,92,0.48
2024-06-06 11:59:40.724,1988.6,1056.6,3186.6,92,0.48
2024-06-06 11:59:40.998,1424.8,1438.6,3920.6,92,0.48
2024-06-06 11:59:41.124,1233.0,1555.2,3806.4,92,0.48
2024-06-06 11:59:41.370,1467.8333333333333,1976.3333333333333,3764.8333333333335,92,0.48
2024-06-06 11:59:41.530,1873.0,1068.2,3312.0,92,0.48
2024-06-06 11:59:41.820,1717.6,1452.2,3599.6,92,0.48
2024-06-06 11:59:41.935,1354.6666666666667,1440.1666666666667,3750.5,92,0.48
2024-06-06 11:59:42.213,1371.0,1612.6,3371.0,92,0.48
2024-06-06 11:59:42.321,1966.0,1786.0,3412.8,92,0.48
2024-06-06 11:59:42.550,1784.1666666666667,1154.0,3356.5,92,0.48
2024-06-06 11:59:42.745,1492.0,1924.0,3986.8,92,0.48
2024-06-06 11:59:42.927,1509.2,1155.8,3328.8,92,0.48
2024-06-06 11:59:43.118,1343.5,1357.0,3327.5,92,0.48
2024-06-06 11:59:43.344,2262.2,1408.4,3477.0,92,0.48
2024-06-06 11:59:43.542,1024.4,1242.0,3646.4,92,0.48
2024-06-06 11:59:43.722,1645.2,1803.2,3833.4,92,0.48
2024-06-06 11:59:43.944,1410.5,1629.3333333333333,3139.0,92,0.48
2024-06-06 11:59:44.138,2321.4,1330.6,3433.2,92,0.48
2024-06-06 11:59:44.336,1361.2,1714.8,4020.4,92,0.48
2024-06-06 11:59:44.528,1879.8333333333333,1261.6666666666667,3354.8333333333335,92,0.48
2024-06-06 11:59:44.788,1441.2,1464.6,3561.6,92,0.48
2024-06-06 11:59:44.920,1949.4,950.0,2911.2,92,0.48
2024-06-06 11:59:45.131,1831.0,1525.3333333333333,3706.8333333333335,93,0.48
2024-06-06 11:59:45.326,1755.8,1606.0,3769.8,93,0.48
2024-06-06 11:59:45.520,1483.2,1369.6,3366.2,93,0.48
2024-06-06 11:59:45.854,1957.1666666666667,1003.1666666666666,3002.5,93,0.48
2024-06-06 11:59:45.925,1764.2,1473.0,3651.0,93,0.48
2024-06-06 11:59:46.134,1587.2,1676.6,3747.6,93,0.48
2024-06-06 11:59:46.363,1647.6,1449.4,3704.4,93,0.48
2024-06-06 11:59:46.538,1921.1666666666667,1110.6666666666667,3086.0,93,0.48
2024-06-06 11:59:46.796,1715.6,1385.2,3455.0,93,0.48
2024-06-06 11:59:46.928,1502.4,1847.6,3877.8,93,0.48
2024-06-06 11:59:47.124,1698.6666666666667,948.6666666666666,3237.1666666666665,93,0.48
2024-06-06 11:59:47.333,1343.6,1437.8,3511.6,93,0.48
2024-06-06 11:59:47.544,2009.0,1002.0,3048.2,93,0.48
2024-06-06 11:59:47.743,1477.5,1333.8333333333333,3879.1666666666665,93,0.48
2024-06-06 11:59:47.934,1982.8,1517.4,3556.0,93,0.48
2024-06-06 11:59:48.128,1874.6,1151.6,3326.2,93,0.48
2024-06-06 11:59:48.324,2346.0,1474.8333333333333,3342.1666666666665,93,0.48
2024-06-06 11:59:48.518,1279.6,1483.2,4178.2,94,0.49
2024-06-06 11:59:48.730,1510.4,1578.2,3283.6,94,0.49
2024-06-06 11:59:48.925,1584.6,1387.0,3271.2,94,0.49
2024-06-06 11:59:49.139,1831.1666666666667,1049.8333333333333,3449.3333333333335,94,0.49
2024-06-06 11:59:49.332,1601.6,1331.4,3684.0,94,0.49
2024-06-06 11:59:49.585,1790.4,1429.6,3823.0,94,0.49
2024-06-06 11:59:49.720,1441.1666666666667,1628.1666666666667,3662.6666666666665,94,0.49
2024-06-06 11:59:49.931,2036.8,1591.2,3603.4,94,0.49
2024-06-06 11:59:50.122,1542.8,1151.4,3512.6,94,0.49
2024-06-06 11:59:50.332,1295.6,1830.8,3960.4,94,0.49
2024-06-06 11:59:50.527,1933.8333333333333,999.3333333333334,3060.3333333333335,94,0.49
2024-06-06 11:59:50.741,1173.2,1366.0,3724.2,94,0.49
2024-06-06 11:59:50.919,1798.8,1367.0,3593.2,94,0.49
2024-06-06 11:59:51.131,1940.1666666666667,1219.5,3404.0,94,0.49
2024-06-06 11:59:51.324,1764.0,1254.6,3934.4,94,0.49
2024-06-06 11:59:51.539,1531.4,1449.4,3515.6,99,0.52
2024-06-06 11:59:51.729,1487.0,1194.5,3196.1666666666665,99,0.52
2024-06-06 11:59:51.955,1694.2,946.6,3577.2,99,0.52
2024-06-06 11:59:52.117,1828.4,1200.4,3905.6,99,0.52
2024-06-06 11:59:52.326,1687.2,997.0,3236.0,99,0.52
2024-06-06 11:59:52.555,1701.3333333333333,1234.3333333333333,3560.8333333333335,99,0.52
2024-06-06 11:59:52.720,1753.2,1401.0,4013.2,99,0.52
2024-06-06 11:59:52.937,1601.0,1014.0,3501.8,99,0.52
2024-06-06 11:59:53.141,1614.6666666666667,1215.0,3243.8333333333335,99,0.52
2024-06-06 11:59:53.403,1273.8,1409.6,3689.8,99,0.52
2024-06-06 11:59:53.546,2068.0,1234.6,3389.2,99,0.52
2024-06-06 11:59:53.726,1672.8333333333333,1284.8333333333333,3426.3333333333335,99,0.52
2024-06-06 11:59:54.000,2027.8,1342.4,3826.4,99,0.52
2024-06-06 11:59:54.144,1517.2,1484.4,3332.8,99,0.52
2024-06-06 11:59:54.339,1940.5,1203.5,3538.0,99,0.52
2024-06-06 11:59:54.534,2097.6,1332.0,3127.6,99,0.52
2024-06-06 11:59:54.730,1957.2,2012.8,3637.8,99,0.52
2024-06-06 11:59:55.004,1595.6,1747.6,3098.6,99,0.52
2024-06-06 11:59:55.170,2315.0,1626.8333333333333,3153.6666666666665,99,0.52
2024-06-06 11:59:55.329,1570.6,1162.0,3936.4,99,0.52
2024-06-06 11:59:55.524,1827.4,1773.8,3874.8,99,0.52
2024-06-06 11:59:55.769,2246.8333333333335,938.6666666666666,3062.3333333333335,99,0.52
2024-06-06 11:59:55.972,1965.6,598.6,2867.4,99,0.52
2024-06-06 11:59:56.125,2365.4,1350.4,3326.4,99,0.52
2024-06-06 11:59:56.320,2023.5,1336.1666666666667,3690.5,99,0.52
2024-06-06 11:59:56.545,2071.6,937.4,3451.0,102,0.53
2024-06-06 11:59:56.724,2087.8,817.4,3342.2,102,0.53
2024-06-06 11:59:57.002,2213.6666666666665,1019.1666666666666,3444.5,102,0.53
2024-06-06 11:59:57.193,1232.0,1175.0,3166.0,102,0.53
2024-06-06 11:59:57.194,1913.0,1424.5,3672.25,102,0.53
2024-06-06 11:59:57.323,1864.4,1476.4,3621.8,102,0.53
2024-06-06 11:59:57.547,1725.6,1083.4,3239.6,102,0.53
2024-06-06 11:59:57.742,2253.0,1248.0,3333.3333333333335,102,0.53
2024-06-06 11:59:57.923,1726.4,1065.6,3109.8,102,0.53
2024-06-06 11:59:58.136,1965.4,1387.6,3625.8,102,0.53
2024-06-06 11:59:58.328,1640.1666666666667,1294.0,3039.1666666666665,102,0.53
2024-06-06 11:59:58.540,2244.8,510.2,2850.0,102,0.53
2024-06-06 11:59:58.720,1656.6,2155.8,4373.2,102,0.53
2024-06-06 11:59:58.931,2316.3333333333335,861.8333333333334,3357.0,102,0.53
2024-06-06 11:59:59.129,1431.4,1777.4,4031.4,102,0.53
2024-06-06 11:59:59.350,2108.0,824.6,2820.2,102,0.53
2024-06-06 11:59:59.530,1707.8,888.0,3851.2,102,0.53
2024-06-06 11:59:59.789,2169.0,1001.8333333333334,3178.6666666666665,102,0.53
2024-06-06 11:59:59.920,1905.0,1386.8,3476.6,102,0.53
2024-06-06 12:00:00.154,1768.6,1444.0,3400.2,102,0.53
2024-06-06 12:00:00.326,2430.8333333333335,1260.5,3373.1666666666665,102,0.53
2024-06-06 12:00:00.521,2035.8,1218.8,3510.8,102,0.53
2024-06-06 12:00:00.799,2201.2,1122.4,3175.4,102,0.53
2024-06-06 12:00:00.984,2159.0,1454.8,3473.6,102,0.53
2024-06-06 12:00:01.120,2176.3333333333335,1324.8333333333333,3345.6666666666665,102,0.53
2024-06-06 12:00:01.328,2103.2,901.8,3057.2,102,0.53
2024-06-06 12:00:01.523,2421.6,1364.6,3355.4,104,0.54
2024-06-06 12:00:01.719,2437.8333333333335,1245.0,3153.6666666666665,104,0.54
2024-06-06 12:00:01.916,1256.8,1235.4,3260.4,104,0.54
2024-06-06 12:00:02.129,1672.2,1835.0,3418.8,104,0.54
2024-06-06 12:00:02.334,1341.8333333333333,1618.0,3524.1666666666665,104,0.54
2024-06-06 12:00:02.532,1437.0,2354.4,3808.2,104,0.54
2024-06-06 12:00:02.729,1996.4,1579.2,3077.2,104,0.54
2024-06-06 12:00:02.922,258.3333333333333,1827.8333333333333,4758.333333333333,104,0.54
2024-06-06 12:00:03.131,1797.0,2045.0,2956.8,104,0.54
2024-06-06 12:00:03.339,289.0,1420.6,3939.2,104,0.54
2024-06-06 12:00:03.533,1504.8,1181.6,4069.2,104,0.54
2024-06-06 12:00:03.731,1836.0,946.8333333333334,3301.3333333333335,104,0.54
2024-06-06 12:00:03.924,460.8,1329.6,3035.4,104,0.54
2024-06-06 12:00:04.134,1654.2,1492.2,4818.6,104,0.54
2024-06-06 12:00:04.329,1504.5,1320.5,3961.5,104,0.54
2024-06-06 12:00:04.522,1662.4,1458.2,3633.2,104,0.54
2024-06-06 12:00:04.780,2067.2,297.6,2059.6,104,0.54
2024-06-06 12:00:04.947,1636.0,2228.0,5105.333333333333,104,0.54
2024-06-06 12:00:05.186,1878.0,803.6,3499.0,104,0.54
2024-06-06 12:00:05.327,849.0,2158.8,3960.8,104,0.54
2024-06-06 12:00:05.530,1832.1666666666667,1384.1666666666667,3000.3333333333335,104,0.54
2024-06-06 12:00:05.742,1607.4,1016.0,3864.0,104,0.54
2024-06-06 12:00:05.949,1835.4,1604.0,4334.6,104,0.54
2024-06-06 12:00:06.197,2323.6,1286.6,3797.8,104,0.54
2024-06-06 12:00:06.339,1589.0,896.8333333333334,3297.3333333333335,104,0.54
2024-06-06 12:00:06.533,2366.2,1023.2,2710.4,104,0.54
2024-06-06 12:00:06.730,1569.4,1408.4,1999.2,104,0.54
2024-06-06 12:00:06.956,2005.0,1711.8333333333333,4841.5,104,0.54
2024-06-06 12:00:07.143,1205.0,2542.4,1027.8,104,0.54
2024-06-06 12:00:07.331,1246.2,1171.6,3198.8,104,0.54
2024-06-06 12:00:07.589,1910.6666666666667,2118.8333333333335,5523.5,110,0.57
2024-06-06 12:00:07.748,1430.2,847.4,2763.8,110,0.57
2024-06-06 12:00:07.933,1996.2,1415.6,4241.8,110,0.57
2024-06-06 12:00:08.125,2117.5,1011.5,2289.3333333333335,110,0.57
2024-06-06 12:00:08.351,1516.6,1087.0,3121.2,110,0.57
2024-06-06 12:00:08.625,1987.4,2250.0,4328.4,110,0.57
2024-06-06 12:00:08.723,2310.6666666666665,1280.3333333333333,2637.0,110,0.57
2024-06-06 12:00:08.724,2307.0,1468.5,5353.0,110,0.57
2024-06-06 12:00:08.948,1854.0,581.8333333333334,3014.5,110,0.57
2024-06-06 12:00:09.131,1584.8,852.2,3359.6,110,0.57
2024-06-06 12:00:09.325,2461.0,616.2,1476.8,110,0.57
2024-06-06 12:00:09.534,2185.6666666666665,491.0,2366.8333333333335,110,0.57
2024-06-06 12:00:09.747,2460.0,840.6,2842.4,110,0.57
2024-06-06 12:00:10.011,1707.4,1286.8,3791.2,110,0.57
2024-06-06 12:00:10.147,1551.0,1675.6,3235.8,110,0.57
2024-06-06 12:00:10.331,1596.5,2079.1666666666665,3543.3333333333335,110,0.57
2024-06-06 12:00:10.539,1424.0,413.8,1497.8,110,0.57
2024-06-06 12:00:10.733,1726.2,948.4,3681.6,110,0.57
2024-06-06 12:00:10.927,1791.8333333333333,1021.5,3453.6666666666665,110,0.57
2024-06-06 12:00:11.125,2057.8,1135.0,2987.8,110,0.57
2024-06-06 12:00:11.403,1815.0,1047.8,3119.8,110,0.57
2024-06-06 12:00:11.531,1890.8333333333333,1288.3333333333333,3448.6666666666665,110,0.57
2024-06-06 12:00:11.724,1546.8,2093.4,4598.2,110,0.57
2024-06-06 12:00:11.999,1655.2,1295.6,2872.6,110,0.57
2024-06-06 12:00:12.129,2028.6,1774.8,3742.2,110,0.57
2024-06-06 12:00:12.420,2031.5,964.8333333333334,2521.5,110,0.57
2024-06-06 12:00:12.522,2072.4,1234.4,3947.2,110,0.57
2024-06-06 12:00:12.748,2509.4,1832.0,4269.8,110,0.57
2024-06-06 12:00:12.970,1579.1666666666667,567.3333333333334,2955.8333333333335,110,0.57
2024-06-06 12:00:13.121,1593.4,1312.4,3416.8,110,0.57
2024-06-06 12:00:13.331,1826.0,2285.2,4493.8,110,0.57
2024-06-06 12:00:13.526,1212.5,629.8333333333334,1920.3333333333333,110,0.57
2024-06-06 12:00:13.735,1506.4,1059.4,2663.4,110,0.57
2024-06-06 12:00:13.944,1741.8,949.4,2323.4,110,0.57
2024-06-06 12:00:14.156,1661.0,1150.5,3322.75,110,0.57
2024-06-06 12:00:14.157,3091.0,619.0,1710.5,110,0.57
2024-06-06 12:00:14.351,1632.0,780.2,2379.8,110,0.57
2024-06-06 12:00:14.530,1652.8,971.0,1043.2,110,0.57
2024-06-06 12:00:14.838,4375.4,1175.0,3753.0,110,0.57
2024-06-06 12:00:14.920,-1545.0,1420.0,2902.0,110,0.57
2024-06-06 12:00:14.922,2898.0,-87.6,3777.8,110,0.57
2024-06-06 12:00:15.148,1923.6,2033.0,3509.0,110,0.57
2024-06-06 12:00:15.369,1918.4,1045.8,3917.6,110,0.57
2024-06-06 12:00:15.551,1936.3333333333333,991.0,2358.0,110,0.57
2024-06-06 12:00:15.745,2313.0,1889.6,4362.4,110,0.57
2024-06-06 12:00:16.023,1506.2,1379.0,2918.4,110,0.57
2024-06-06 12:00:16.136,1691.0,911.5,2987.0,110,0.57
2024-06-06 12:00:16.362,1368.0,1594.8,3534.4,110,0.57
2024-06-06 12:00:16.536,1714.6,154.6,2662.8,110,0.57
2024-06-06 12:00:16.721,2500.0,1143.8333333333333,3563.3333333333335,110,0.57
2024-06-06 12:00:16.932,3253.8,3858.8,8169.8,110,0.57
2024-06-06 12:00:17.127,1788.2,1252.2,2776.2,110,0.57
2024-06-06 12:00:17.398,1677.5,980.0,4062.8333333333335,110,0.57
2024-06-06 12:00:17.532,1319.6,1314.6,3545.8,110,0.57
2024-06-06 12:00:17.724,1573.6,1116.4,2513.8,110,0.57
2024-06-06 12:00:17.983,2150.6,1766.2,3582.6,110,0.57
2024-06-06 12:00:18.144,652.0,1603.8333333333333,5011.0,110,0.57
2024-06-06 12:00:18.339,870.4,3037.0,4305.8,110,0.57
2024-06-06 12:00:18.597,2106.0,577.4,3518.0,110,0.57
2024-06-06 12:00:18.747,1428.3333333333333,984.5,3734.5,110,0.57
2024-06-06 12:00:18.941,1373.0,571.2,2782.2,110,0.57
2024-06-06 12:00:19.177,2119.0,1045.2,2453.4,110,0.57
2024-06-06 12:00:19.327,1746.0,19.0,2456.0,110,0.57
2024-06-06 12:00:19.524,1952.3333333333333,1080.8333333333333,2400.3333333333335,110,0.57
2024-06-06 12:00:19.778,1877.6,2218.4,4676.0,110,0.57
2024-06-06 12:00:19.976,1551.8,1042.8,2551.0,110,0.57
2024-06-06 12:00:20.123,1614.5,1183.1666666666667,3863.8333333333335,110,0.57
2024-06-06 12:00:20.321,1814.0,598.8,3536.4,110,0.57
2024-06-06 12:00:20.530,2086.0,2752.0,4243.2,110,0.57
2024-06-06 12:00:20.725,1479.6666666666667,863.3333333333334,2915.1666666666665,110,0.57
2024-06-06 12:00:20.985,2302.8,2088.4,5560.0,110,0.57
2024-06-06 12:00:21.128,1482.6,3282.0,4715.2,110,0.57
2024-06-06 12:00:21.325,1398.4,2273.6,2937.8,110,0.57
2024-06-06 12:00:21.520,2068.5,1648.3333333333333,4295.333333333333,112,0.58
2024-06-06 12:00:21.721,1533.4,1070.8,2265.4,112,0.58
2024-06-06 12:00:21.991,1941.0,1274.4,4276.2,112,0.58
2024-06-06 12:00:22.135,1547.3333333333333,2508.8333333333335,2328.8333333333335,112,0.58
2024-06-06 12:00:22.347,1272.2,689.0,1704.4,112,0.58
2024-06-06 12:00:22.523,1330.0,1955.4,4087.0,112,0.58
2024-06-06 12:00:22.721,732.6666666666666,884.6666666666666,3136.0,112,0.58
2024-06-06 12:00:22.961,1752.2,722.2,1935.6,112,0.58
2024-06-06 12:00:23.126,2215.2,2132.6,3690.8,112,0.58
2024-06-06 12:00:23.336,1556.0,1693.0,3771.4,112,0.58
2024-06-06 12:00:23.614,1917.6666666666667,1676.0,3765.0,112,0.58
2024-06-06 12:00:23.725,2654.4,244.4,5778.2,112,0.58
2024-06-06 12:00:23.950,609.2,1264.0,3403.0,112,0.58
2024-06-06 12:00:24.130,1267.6666666666667,1635.6666666666667,2646.5,112,0.58
2024-06-06 12:00:24.326,2951.2,1427.0,4002.0,112,0.58
2024-06-06 12:00:24.518,2055.2,635.6,3346.2,112,0.58
2024-06-06 12:00:24.798,2276.1666666666665,1246.6666666666667,4435.666666666667,112,0.58
2024-06-06 12:00:24.945,2094.8,1376.6,4962.0,112,0.58
2024-06-06 12:00:25.152,2171.4,1246.4,2682.2,112,0.58
2024-06-06 12:00:25.331,1970.8333333333333,1868.6666666666667,3857.8333333333335,112,0.58
2024-06-06 12:00:25.540,1750.4,1694.4,3232.8,112,0.58
2024-06-06 12:00:25.734,1952.8,1209.6,3253.2,112,0.58
2024-06-06 12:00:25.933,2093.8333333333335,1396.8333333333333,3743.1666666666665,112,0.58
2024-06-06 12:00:26.126,2150.6,1137.6,3303.4,112,0.58
2024-06-06 12:00:26.348,2528.0,1546.2,4326.4,112,0.58
2024-06-06 12:00:26.575,1444.2,1397.0,2413.0,115,0.6
2024-06-06 12:00:26.724,3746.0,1054.0,4123.0,115,0.6
2024-06-06 12:00:26.937,1935.6,2415.6,4024.6,115,0.6
2024-06-06 12:00:27.145,1667.0,1188.8,3095.6,115,0.6
2024-06-06 12:00:27.383,2064.6666666666665,2019.6666666666667,5462.5,115,0.6
2024-06-06 12:00:27.654,1299.2,1170.4,2904.6,115,0.6
2024-06-06 12:00:27.775,1101.4,2335.4,3516.8,115,0.6
2024-06-06 12:00:27.986,1658.0,1947.6666666666667,3376.5,115,0.6
2024-06-06 12:00:28.134,1748.2,1143.4,3324.4,115,0.6
2024-06-06 12:00:28.415,1948.8,726.4,3351.8,115,0.6
2024-06-06 12:00:28.586,2263.8,792.0,2782.2,115,0.6
2024-06-06 12:00:28.780,1979.3333333333333,1153.6666666666667,4328.5,115,0.6
2024-06-06 12:00:29.018,2046.0,526.4,2643.6,115,0.6
2024-06-06 12:00:29.123,2459.0,1634.4,3011.8,115,0.6
2024-06-06 12:00:29.318,1694.0,1086.8333333333333,2012.1666666666667,115,0.6
2024-06-06 12:00:29.574,3302.4,1669.8,4004.8,115,0.6
2024-06-06 12:00:29.723,800.4,624.0,2699.4,115,0.6
2024-06-06 12:00:29.918,1423.3333333333333,445.6666666666667,4369.5,115,0.6
2024-06-06 12:00:30.146,2093.8,1196.8,2019.2,115,0.6
2024-06-06 12:00:30.407,328.8,1757.2,1876.6,115,0.6
2024-06-06 12:00:30.593,1681.8,3125.4,4303.0,115,0.6
2024-06-06 12:00:30.751,1813.8333333333333,801.0,3519.6666666666665,115,0.6
2024-06-06 12:00:30.940,1876.4,1482.0,3735.0,115,0.6
2024-06-06 12:00:31.181,2364.2,867.8,4083.2,115,0.6
2024-06-06 12:00:31.330,1754.6666666666667,1047.5,3466.1666666666665,115,0.6
2024-06-06 12:00:31.586,2426.2,1430.4,3318.4,118,0.62
2024-06-06 12:00:31.721,1516.0,906.2,4236.6,118,0.62
2024-06-06 12:00:31.927,1448.6666666666667,1427.5,2758.5,118,0.62
2024-06-06 12:00:32.127,2484.0,749.6,3807.8,118,0.62
2024-06-06 12:00:32.318,1471.6,-279.0,2938.4,118,0.62
2024-06-06 12:00:32.530,1448.8,310.2,3726.2,118,0.62
2024-06-06 12:00:32.725,2280.0,2224.5,3268.8333333333335,118,0.62
2024-06-06 12:00:32.953,1180.0,1725.8,3524.4,118,0.62
2024-06-06 12:00:33.115,2468.8,1178.6,3110.0,118,0.62
2024-06-06 12:00:33.323,1075.0,1724.0,4411.666666666667,118,0.62
2024-06-06 12:00:33.519,1765.4,1995.4,4353.6,118,0.62
2024-06-06 12:00:33.729,2473.4,1031.4,2757.4,118,0.62
2024-06-06 12:00:33.925,2004.6666666666667,1044.0,2497.0,118,0.62
2024-06-06 12:00:34.150,1851.0,513.0,2860.8,118,0.62
2024-06-06 12:00:34.374,2366.6,1138.6,3803.0,118,0.62
2024-06-06 12:00:34.527,1160.3333333333333,318.3333333333333,3656.1666666666665,118,0.62
2024-06-06 12:00:34.722,2678.6,1655.4,3087.0,118,0.62
2024-06-06 12:00:34.991,1879.4,858.0,3410.0,118,0.62
2024-06-06 12:00:35.126,2178.0,1818.8,3714.2,118,0.62
2024-06-06 12:00:35.350,2196.1666666666665,447.1666666666667,3168.1666666666665,118,0.62
2024-06-06 12:00:35.546,1947.6,1257.8,3376.6,118,0.62
2024-06-06 12:00:35.728,1995.6,541.6,3569.8,118,0.62
2024-06-06 12:00:35.920,3194.0,1313.0,4503.0,118,0.62
2024-06-06 12:00:35.921,1933.8,774.4,2691.6,118,0.62
2024-06-06 12:00:36.196,1957.6,2003.8,4367.6,118,0.62
2024-06-06 12:00:36.323,1727.6,1166.4,3472.6,118,0.62
2024-06-06 12:00:36.570,1985.0,1152.6666666666667,3209.5,118,0.62
2024-06-06 12:00:36.728,2214.0,990.4,3664.4,118,0.62
2024-06-06 12:00:36.927,2586.6,1356.0,2977.6,118,0.62
2024-06-06 12:00:37.136,1730.1666666666667,817.5,2842.3333333333335,118,0.62
2024-06-06 12:00:37.332,2026.8,1792.2,2466.4,118,0.62
2024-06-06 12:00:37.541,2669.6,1142.8,2409.8,118,0.62
2024-06-06 12:00:37.734,1766.0,134.0,3758.8,118,0.62
2024-06-06 12:00:37.931,2424.8333333333335,1108.6666666666667,3873.8333333333335,118,0.62
2024-06-06 12:00:38.139,1943.2,1063.6,3764.4,118,0.62
2024-06-06 12:00:38.318,1683.8,1728.6,2905.0,118,0.62
2024-06-06 12:00:38.624,1283.0,1534.0,3611.5,118,0.62
2024-06-06 12:00:38.742,1738.8,438.2,2992.0,118,0.62
2024-06-06 12:00:38.950,2294.2,570.4,3475.0,118,0.62
2024-06-06 12:00:39.153,1475.8333333333333,992.8333333333334,3617.6666666666665,118,0.62
2024-06-06 12:00:39.354,1995.2,1222.8,3628.4,118,0.62
2024-06-06 12:00:39.520,1977.0,1431.4,3058.2,118,0.62
2024-06-06 12:00:39.745,1322.0,1471.6,4141.2,118,0.62
2024-06-06 12:00:39.926,2944.5,524.8333333333334,4058.6666666666665,118,0.62
2024-06-06 12:00:40.124,1626.6,1116.8,4007.0,118,0.62
2024-06-06 12:00:40.344,1830.4,1241.8,2064.4,118,0.62
2024-06-06 12:00:40.541,1347.3333333333333,1027.1666666666667,3327.1666666666665,118,0.62
2024-06-06 12:00:40.817,1804.8,1408.8,4224.2,118,0.62
2024-06-06 12:00:40.930,2793.2,2168.2,3981.0,118,0.62
2024-06-06 12:00:41.140,1597.6,951.2,3961.0,118,0.62
2024-06-06 12:00:41.321,2673.0,1194.3333333333333,5337.333333333333,118,0.62
2024-06-06 12:00:41.547,1586.8,-214.0,2528.8,118,0.62
2024-06-06 12:00:41.816,1273.8,578.2,2719.8,118,0.62
2024-06-06 12:00:41.982,2170.6666666666665,963.3333333333334,4514.5,118,0.62
2024-06-06 12:00:42.113,3645.0,662.0,3839.0,118,0.62
2024-06-06 12:00:42.437,1025.4,-192.6,2966.2,118,0.62
2024-06-06 12:00:42.579,1045.8333333333333,1084.0,3263.3333333333335,118,0.62
2024-06-06 12:00:42.742,1984.8,1628.6,4821.4,118,0.62
2024-06-06 12:00:42.926,1497.2,860.6,3030.2,118,0.62
2024-06-06 12:00:43.122,1645.5,1547.1666666666667,2017.6666666666667,118,0.62
2024-06-06 12:00:43.329,1674.8,1604.2,4397.8,118,0.62
2024-06-06 12:00:43.539,2077.0,396.4,3580.8,118,0.62
2024-06-06 12:00:43.751,1988.4,1322.4,3475.6,118,0.62
2024-06-06 12:00:43.931,1543.1666666666667,1061.8333333333333,3800.8333333333335,118,0.62
2024-06-06 12:00:44.142,2015.8,1069.0,4028.8,118,0.62
2024-06-06 12:00:44.319,2108.8,1282.4,4125.0,118,0.62
2024-06-06 12:00:44.532,1570.8333333333333,1620.0,3566.3333333333335,118,0.62
2024-06-06 12:00:44.777,2158.0,1695.0,3255.0,118,0.62
2024-06-06 12:00:44.919,1801.0,2099.4,3455.0,118,0.62
2024-06-06 12:00:45.131,2406.0,-41.0,2094.0,118,0.62
2024-06-06 12:00:45.132,1746.8,2246.4,3159.2,118,0.62
2024-06-06 12:00:45.325,1527.4,1337.4,5244.8,118,0.62
2024-06-06 12:00:45.551,1770.8,948.4,3902.4,118,0.62
2024-06-06 12:00:45.824,1746.5,1106.1666666666667,3659.5,118,0.62
2024-06-06 12:00:45.926,1775.6,1459.6,3975.0,118,0.62
2024-06-06 12:00:46.203,1428.2,1492.8,2527.4,118,0.62
2024-06-06 12:00:46.332,1799.4,1409.4,4171.6,118,0.62
2024-06-06 12:00:46.522,2086.3333333333335,1159.5,3436.3333333333335,118,0.62
2024-06-06 12:00:46.750,2108.4,1140.6,1889.4,118,0.62
2024-06-06 12:00:46.945,1925.4,1685.8,3977.4,118,0.62
2024-06-06 12:00:47.140,1629.5,935.3333333333334,3222.8333333333335,118,0.62
2024-06-06 12:00:47.401,1505.2,1237.2,3856.8,118,0.62
2024-06-06 12:00:47.563,2040.0,841.4,3335.4,118,0.62
2024-06-06 12:00:47.736,1620.3333333333333,1704.3333333333333,5339.5,118,0.62
2024-06-06 12:00:47.934,2046.2,685.8,2489.2,118,0.62
2024-06-06 12:00:48.128,2248.0,1428.4,3966.8,118,0.62
2024-06-06 12:00:48.384,1800.8333333333333,1926.3333333333333,3917.5,118,0.62
2024-06-06 12:00:48.531,1939.2,1152.8,3595.4,118,0.62
2024-06-06 12:00:48.757,1396.0,1782.4,3527.4,118,0.62
2024-06-06 12:00:48.968,1718.4,1397.6,3187.2,118,0.62
2024-06-06 12:00:49.133,1887.3333333333333,1450.6666666666667,3778.3333333333335,118,0.62
2024-06-06 12:00:49.328,1749.4,1072.8,3419.6,118,0.62
2024-06-06 12:00:49.525,1629.8,1771.4,3322.8,118,0.62
2024-06-06 12:00:49.778,1897.8333333333333,1418.3333333333333,4106.833333333333,118,0.62
2024-06-06 12:00:49.972,1171.2,1551.8,3709.0,118,0.62
2024-06-06 12:00:50.122,1827.8,1396.4,3287.8,118,0.62
2024-06-06 12:00:50.348,2077.8,2157.4,3325.0,118,0.62
2024-06-06 12:00:50.528,1829.6666666666667,1130.6666666666667,3681.5,118,0.62
2024-06-06 12:00:50.768,1252.0,2037.2,3903.0,118,0.62
2024-06-06 12:00:50.920,1909.0,1213.8,2964.6,118,0.62
2024-06-06 12:00:51.128,1949.5,1202.3333333333333,4133.833333333333,118,0.62
2024-06-06 12:00:51.328,1133.8,1835.8,2712.8,118,0.62
2024-06-06 12:00:51.518,1809.6,1410.0,3678.6,118,0.62
2024-06-06 12:00:51.795,1358.1666666666667,1248.3333333333333,3570.6666666666665,118,0.62
2024-06-06 12:00:51.925,1241.4,1463.6,2921.6,118,0.62
2024-06-06 12:00:52.134,1764.4,1073.0,3107.8,118,0.62
2024-06-06 12:00:52.314,1229.0,1465.0,3368.4,118,0.62
2024-06-06 12:00:52.524,1917.3333333333333,2048.0,3838.6666666666665,118,0.62
2024-06-06 12:00:52.763,1274.2,928.8,2403.6,118,0.62
2024-06-06 12:00:52.945,1779.4,1866.4,3716.4,118,0.62
2024-06-06 12:00:53.123,1741.8333333333333,1389.5,3370.1666666666665,118,0.62
2024-06-06 12:00:53.319,1856.4,1912.4,3746.0,118,0.62
2024-06-06 12:00:53.528,2048.6,1140.0,3680.2,118,0.62
2024-06-06 12:00:53.831,1613.5,1618.8333333333333,3552.5,118,0.62
2024-06-06 12:00:53.919,1539.4,1578.8,2954.0,118,0.62
2024-06-06 12:00:54.131,2005.6,1319.4,3680.6,118,0.62
2024-06-06 12:00:54.370,1570.3333333333333,1788.0,3713.3333333333335,118,0.62
2024-06-06 12:00:54.534,1728.0,1381.0,2599.0,118,0.62
2024-06-06 12:00:54.535,1490.5,1549.0,2369.25,118,0.62
2024-06-06 12:00:54.745,2031.4,1638.2,2952.2,118,0.62
2024-06-06 12:00:54.925,1732.0,1255.3333333333333,3442.0,118,0.62
2024-06-06 12:00:55.120,1853.0,1394.2,3543.6,118,0.62
2024-06-06 12:00:55.336,1381.2,1974.4,3927.4,118,0.62
2024-06-06 12:00:55.540,1735.8,1294.8,3046.4,118,0.62
2024-06-06 12:00:55.734,1578.5,1500.1666666666667,3178.0,118,0.62
2024-06-06 12:00:55.930,2381.2,893.4,2730.8,118,0.62
2024-06-06 12:00:56.123,1528.6,894.4,3316.0,118,0.62
2024-06-06 12:00:56.335,1721.3333333333333,2155.1666666666665,3940.5,118,0.62
2024-06-06 12:00:56.530,1234.0,1015.0,3345.6,118,0.62
2024-06-06 12:00:56.737,1660.2,1026.8,2623.0,118,0.62
2024-06-06 12:00:56.952,2427.5,984.0,4242.0,118,0.62
2024-06-06 12:00:56.953,1418.75,1688.75,3300.0,118,0.62
2024-06-06 12:00:57.135,1807.0,1424.4,2862.4,118,0.62
2024-06-06 12:00:57.327,1823.2,1300.6,3524.6,118,0.62
2024-06-06 12:00:57.677,1752.1666666666667,1428.6666666666667,3554.3333333333335,118,0.62
2024-06-06 12:00:57.730,2182.4,1727.6,3314.6,118,0.62
2024-06-06 12:00:57.946,1515.4,1608.2,3308.2,118,0.62
2024-06-06 12:00:58.134,1446.8,1607.6,4704.0,118,0.62
2024-06-06 12:00:58.330,2054.0,1581.8333333333333,2781.5,118,0.62
2024-06-06 12:00:58.607,1568.2,1729.4,3663.8,118,0.62
2024-06-06 12:00:58.735,1608.8,1152.6,2687.8,118,0.62
2024-06-06 12:00:58.931,1797.1666666666667,1169.5,3790.1666666666665,118,0.62
2024-06-06 12:00:59.141,1481.0,1910.0,3114.2,118,0.62
2024-06-06 12:00:59.395,1535.8,1048.2,3138.4,118,0.62
2024-06-06 12:00:59.532,1734.0,1993.2,4095.6,118,0.62
2024-06-06 12:00:59.726,1521.1666666666667,1714.0,3294.6666666666665,118,0.62
2024-06-06 12:00:59.935,1983.0,1527.8,3687.6,118,0.62
2024-06-06 12:01:00.129,974.6,1540.4,3411.6,118,0.62
2024-06-06 12:01:00.370,1866.0,2203.6666666666665,3751.8333333333335,118,0.62
2024-06-06 12:01:00.520,1447.6,1503.8,2616.4,118,0.62
2024-06-06 12:01:00.729,1666.8,514.6,2912.6,118,0.62
2024-06-06 12:01:00.939,1754.3333333333333,1111.5,3651.5,118,0.62
2024-06-06 12:01:01.119,1800.8,2523.8,3452.2,118,0.62
2024-06-06 12:01:01.389,1647.0,1190.0,3646.8,118,0.62
2024-06-06 12:01:01.526,2168.2,1665.6,3599.0,118,0.62
2024-06-06 12:01:01.733,2016.5,1710.1666666666667,3679.6666666666665,118,0.62
2024-06-06 12:01:01.930,1826.0,1163.8,3059.4,118,0.62
2024-06-06 12:01:02.124,1366.0,1232.6,3540.0,118,0.62
2024-06-06 12:01:02.320,1752.8333333333333,1506.3333333333333,3125.0,118,0.62
2024-06-06 12:01:02.529,1123.2,1218.4,3125.6,118,0.62
2024-06-06 12:01:02.724,1623.4,1481.0,3477.8,118,0.62
2024-06-06 12:01:02.916,1784.5,1804.8333333333333,3919.8333333333335,118,0.62
2024-06-06 12:01:03.197,1449.4,1508.0,3457.4,118,0.62
2024-06-06 12:01:03.325,2326.4,1212.6,3214.0,118,0.62
2024-06-06 12:01:03.536,1848.3333333333333,1572.5,3261.8333333333335,118,0.62
2024-06-06 12:01:03.729,2068.8,1474.6,2715.0,118,0.62
2024-06-06 12:01:03.971,2257.4,1241.6,3976.4,118,0.62
2024-06-06 12:01:04.118,1683.2,1616.6,3701.6,118,0.62
2024-06-06 12:01:04.329,1789.8333333333333,1162.0,3475.3333333333335,118,0.62
2024-06-06 12:01:04.523,1478.6,2242.2,3637.8,118,0.62
2024-06-06 12:01:04.720,2265.0,1797.4,3533.8,118,0.62
2024-06-06 12:01:04.975,1479.3333333333333,1440.8333333333333,3480.1666666666665,118,0.62
2024-06-06 12:01:05.124,1736.6,995.4,3483.0,118,0.62
2024-06-06 12:01:05.337,878.4,1541.6,2624.4,118,0.62
2024-06-06 12:01:05.546,1788.5,1596.3333333333333,4370.333333333333,118,0.62
2024-06-06 12:01:05.772,1186.2,1453.0,2829.4,118,0.62
2024-06-06 12:01:05.934,2117.8,1863.8,5000.4,118,0.62
2024-06-06 12:01:06.126,1439.6666666666667,1003.0,2655.3333333333335,118,0.62
2024-06-06 12:01:06.322,1198.8,2172.0,5259.8,118,0.62
2024-06-06 12:01:06.550,1017.0,1626.4,2458.6,118,0.62
2024-06-06 12:01:06.774,2483.6,1724.4,2953.4,118,0.62
2024-06-06 12:01:06.925,1396.0,1953.3333333333333,4274.666666666667,118,0.62
2024-06-06 12:01:07.132,1473.0,1493.0,3467.2,118,0.62
2024-06-06 12:01:07.326,2169.8,1323.8,3164.2,118,0.62
2024-06-06 12:01:07.523,1938.5,2582.6666666666665,3638.1666666666665,118,0.62
2024-06-06 12:01:07.733,2185.8,893.6,3294.8,118,0.62
2024-06-06 12:01:07.944,1431.4,1812.8,3871.8,118,0.62
2024-06-06 12:01:08.126,2223.6666666666665,1362.8333333333333,3959.3333333333335,118,0.62
2024-06-06 12:01:08.319,1371.0,1749.6,3853.8,118,0.62
2024-06-06 12:01:08.532,2107.2,1852.8,3408.6,119,0.62
2024-06-06 12:01:08.786,2094.6,969.2,3166.0,119,0.62
2024-06-06 12:01:08.936,1719.0,1423.5,3833.8333333333335,119,0.62
2024-06-06 12:01:09.160,1478.0,1266.8,3383.0,119,0.62
2024-06-06 12:01:09.325,2107.8,1835.2,4101.8,119,0.62
2024-06-06 12:01:09.521,1704.5,1359.8333333333333,3440.5,119,0.62
2024-06-06 12:01:09.731,2514.0,1567.2,4138.2,119,0.62
2024-06-06 12:01:09.925,1735.4,371.6,3125.2,119,0.62
2024-06-06 12:01:10.136,2348.8333333333335,1860.6666666666667,3348.6666666666665,119,0.62
2024-06-06 12:01:10.346,1071.0,1579.8,3413.0,119,0.62
2024-06-06 12:01:10.571,1929.6,1178.6,3814.0,119,0.62
2024-06-06 12:01:10.720,1639.4,1769.8,3306.4,119,0.62
2024-06-06 12:01:10.947,2177.3333333333335,1370.8333333333333,3537.0,119,0.62
2024-06-06 12:01:11.126,2002.0,170.4,3257.2,119,0.62
2024-06-06 12:01:11.321,1854.0,1379.8,4194.8,119,0.62
2024-06-06 12:01:11.609,1808.3333333333333,1984.8333333333333,3061.0,119,0.62
2024-06-06 12:01:11.723,1559.0,1225.4,3450.0,119,0.62
2024-06-06 12:01:11.936,1576.6,1896.8,4054.4,119,0.62
2024-06-06 12:01:12.131,2674.3333333333335,877.1666666666666,2011.0,119,0.62
2024-06-06 12:01:12.323,1689.2,1667.0,3239.8,119,0.62
2024-06-06 12:01:12.633,2194.6,1764.2,4651.0,119,0.62
2024-06-06 12:01:12.732,1830.2,1260.0,3634.0,119,0.62
2024-06-06 12:01:12.924,1517.0,1428.6666666666667,2744.8333333333335,119,0.62
2024-06-06 12:01:13.151,1934.2,1968.4,2719.6,119,0.62
2024-06-06 12:01:13.344,1641.0,1309.4,4308.2,119,0.62
2024-06-06 12:01:13.540,1502.5,1638.6666666666667,2834.0,119,0.62
2024-06-06 12:01:13.720,2325.4,1830.0,3110.6,119,0.62
2024-06-06 12:01:13.944,2053.8,739.6,3138.2,119,0.62
2024-06-06 12:01:14.129,1744.5,1376.8333333333333,2581.8333333333335,119,0.62
2024-06-06 12:01:14.397,1475.2,999.4,3566.2,119,0.62
2024-06-06 12:01:14.530,2305.0,2075.8,3668.6,119,0.62
2024-06-06 12:01:14.726,2250.1666666666665,1315.0,3242.6666666666665,119,0.62
2024-06-06 12:01:14.934,2133.0,748.6,2301.4,119,0.62
2024-06-06 12:01:15.132,1589.0,1562.4,3934.0,119,0.62
2024-06-06 12:01:15.401,1276.6,921.8,3656.0,119,0.62
2024-06-06 12:01:15.551,2192.3333333333335,1685.0,3833.0,119,0.62
2024-06-06 12:01:15.732,1346.6,2870.6,4505.4,119,0.62
2024-06-06 12:01:15.927,-809.2,-1187.6,1749.2,119,0.62
2024-06-06 12:01:16.173,-2430.5,-1130.3333333333333,2946.5,119,0.62
2024-06-06 12:01:16.392,-2732.8,218.4,2530.0,119,0.62
2024-06-06 12:01:16.525,-1650.6,-1592.4,1202.8,119,0.62
2024-06-06 12:01:16.736,331.1666666666667,3678.1666666666665,4310.666666666667,119,0.62
2024-06-06 12:01:16.960,1219.2,1053.4,3836.4,119,0.62
2024-06-06 12:01:17.127,1523.8,505.8,4965.0,119,0.62
2024-06-06 12:01:17.339,1809.5,1280.3333333333333,2703.8333333333335,119,0.62
2024-06-06 12:01:17.546,1089.0,845.8,3267.6,119,0.62
2024-06-06 12:01:17.793,2589.2,1443.6,4585.4,119,0.62
2024-06-06 12:01:17.937,1226.8,1371.4,3026.8,119,0.62
2024-06-06 12:01:18.133,2359.6666666666665,1618.1666666666667,3735.3333333333335,119,0.62
2024-06-06 12:01:18.327,1309.4,1033.4,4176.8,119,0.62
2024-06-06 12:01:18.547,2389.4,1229.6,3197.2,119,0.62
2024-06-06 12:01:18.731,1326.5,1038.6666666666667,3170.8333333333335,119,0.62
2024-06-06 12:01:18.928,2066.8,1707.0,3804.0,119,0.62
2024-06-06 12:01:19.138,1723.2,1766.4,4347.8,119,0.62
2024-06-06 12:01:19.331,1575.8333333333333,1194.6666666666667,3076.8333333333335,119,0.62
2024-06-06 12:01:19.544,1421.4,1464.6,3484.2,119,0.62
2024-06-06 12:01:19.721,2458.6,1920.0,3710.8,119,0.62
2024-06-06 12:01:19.935,1547.0,1131.2,4130.4,119,0.62
2024-06-06 12:01:20.190,1680.8333333333333,1563.3333333333333,3058.8333333333335,119,0.62
2024-06-06 12:01:20.322,1460.0,751.8,791.6,119,0.62
2024-06-06 12:01:20.533,2241.6,2450.0,5011.0,119,0.62
2024-06-06 12:01:20.725,1716.1666666666667,1604.5,3598.3333333333335,119,0.62
2024-06-06 12:01:20.923,2007.4,1019.0,2284.6,119,0.62
2024-06-06 12:01:21.132,1447.2,969.2,2927.0,119,0.62
2024-06-06 12:01:21.326,2181.2,483.2,3227.4,119,0.62
2024-06-06 12:01:21.549,1801.1666666666667,940.8333333333334,4217.166666666667,119,0.62
2024-06-06 12:01:21.833,1923.0,1588.0,4067.0,119,0.62
2024-06-06 12:01:21.928,1999.2,1364.6,1873.0,119,0.62
2024-06-06 12:01:22.118,1888.6666666666667,1008.3333333333334,3411.0,119,0.62
2024-06-06 12:01:22.332,1917.8,459.6,4188.2,119,0.62
2024-06-06 12:01:22.568,2270.2,822.6,3807.2,122,0.64
2024-06-06 12:01:22.737,2110.5,1477.6666666666667,3073.6666666666665,122,0.64
2024-06-06 12:01:22.948,2238.0,1640.6,3362.0,122,0.64
2024-06-06 12:01:23.170,1212.6,1175.4,3493.6,122,0.64
2024-06-06 12:01:23.333,1527.8333333333333,1528.1666666666667,2762.6666666666665,122,0.64
2024-06-06 12:01:23.560,2083.4,1289.8,2882.2,122,0.64
2024-06-06 12:01:23.738,2077.6,1392.2,3008.2,122,0.64
2024-06-06 12:01:23.931,1382.0,1090.6,3442.8,122,0.64
2024-06-06 12:01:24.209,2237.5,1969.5,3854.0,122,0.64
2024-06-06 12:01:24.353,2324.2,1493.0,4725.0,122,0.64
2024-06-06 12:01:24.526,1971.2,1413.4,3446.6,122,0.64
2024-06-06 12:01:24.730,1782.0,1116.0,3290.3333333333335,122,0.64
2024-06-06 12:01:24.929,2222.2,682.8,3371.0,122,0.64
2024-06-06 12:01:25.209,2117.4,1499.4,5520.0,122,0.64
2024-06-06 12:01:25.350,1850.1666666666667,1987.0,3222.0,122,0.64
2024-06-06 12:01:25.527,1893.6,276.4,3148.4,122,0.64
2024-06-06 12:01:25.723,2018.4,787.6,3284.0,122,0.64
2024-06-06 12:01:25.968,1924.1666666666667,1335.3333333333333,3830.8333333333335,122,0.64
2024-06-06 12:01:26.232,2466.6,1973.6,5347.6,122,0.64
2024-06-06 12:01:26.334,1641.8,1465.2,3733.6,122,0.64
2024-06-06 12:01:26.580,1553.6,658.2,2407.2,122,0.64
2024-06-06 12:01:26.736,2578.8333333333335,1818.1666666666667,4384.833333333333,122,0.64
2024-06-06 12:01:26.921,1996.4,1258.8,4718.2,122,0.64
2024-06-06 12:01:27.128,1267.2,35.8,2031.8,122,0.64
2024-06-06 12:01:27.322,2620.3333333333335,511.5,3407.5,122,0.64
2024-06-06 12:01:27.532,1457.6,942.8,4103.6,122,0.64
2024-06-06 12:01:27.787,1493.6,2082.0,2734.8,122,0.64
2024-06-06 12:01:27.953,1576.8333333333333,1356.6666666666667,3841.6666666666665,122,0.64
2024-06-06 12:01:28.150,1313.4,895.2,3120.8,122,0.64
2024-06-06 12:01:28.326,2490.2,1631.2,5081.6,122,0.64
2024-06-06 12:01:28.524,1867.1666666666667,1247.0,3213.8333333333335,123,0.64
2024-06-06 12:01:28.742,1524.2,900.2,3001.6,123,0.64
2024-06-06 12:01:28.971,1589.2,1115.6,3261.6,123,0.64
2024-06-06 12:01:29.122,1711.2,1602.4,4303.2,123,0.64
2024-06-06 12:01:29.336,1572.8333333333333,450.5,2653.5,123,0.64
2024-06-06 12:01:29.527,2086.2,1212.4,3705.0,123,0.64
2024-06-06 12:01:29.726,1995.0,687.6,4100.6,123,0.64
2024-06-06 12:01:29.950,2555.1666666666665,825.0,2354.6666666666665,123,0.64
2024-06-06 12:01:30.143,2374.0,64.8,4064.0,123,0.64
2024-06-06 12:01:30.323,1879.6,857.6,2757.4,123,0.64
2024-06-06 12:01:30.600,2095.2,1589.2,3692.8,123,0.64
2024-06-06 12:01:30.729,2007.0,1001.6666666666666,3804.6666666666665,123,0.64
2024-06-06 12:01:30.923,2274.6,1133.2,3832.6,123,0.64
2024-06-06 12:01:31.119,2091.0,880.8,3308.2,123,0.64
2024-06-06 12:01:31.377,2078.5,1135.5,3384.3333333333335,123,0.64
2024-06-06 12:01:31.573,2556.6,302.8,3597.0,123,0.64
2024-06-06 12:01:31.721,2527.0,895.4,3898.4,123,0.64
2024-06-06 12:01:31.929,2407.1666666666665,807.3333333333334,3035.5,123,0.64
2024-06-06 12:01:32.126,2236.2,840.4,3429.2,123,0.64
2024-06-06 12:01:32.333,2512.4,925.4,3194.0,123,0.64
2024-06-06 12:01:32.595,2899.2,596.0,2956.2,123,0.64
2024-06-06 12:01:32.726,2365.3333333333335,814.6666666666666,3237.1666666666665,123,0.64
2024-06-06 12:01:32.920,2020.6,976.4,3420.4,123,0.64
2024-06-06 12:01:33.148,2314.0,291.0,3419.0,123,0.64
2024-06-06 12:01:33.149,1964.75,599.5,3676.0,123,0.64
2024-06-06 12:01:33.326,1839.3333333333333,725.6666666666666,3657.3333333333335,123,0.64
2024-06-06 12:01:33.604,2336.0,116.8,3223.6,123,0.64
2024-06-06 12:01:33.746,2193.2,343.6,3768.6,123,0.64
2024-06-06 12:01:33.941,2343.6666666666665,201.66666666666666,3386.0,123,0.64
2024-06-06 12:01:34.132,2386.4,418.4,3432.0,123,0.64
2024-06-06 12:01:34.331,2168.6,921.8,3599.6,123,0.64
2024-06-06 12:01:34.539,2017.1666666666667,1010.0,3532.3333333333335,123,0.64
2024-06-06 12:01:34.721,1567.0,945.2,3601.8,123,0.64
2024-06-06 12:01:34.930,1816.0,1330.4,4009.8,123,0.64
2024-06-06 12:01:35.184,1936.2,307.6,3863.4,123,0.64
2024-06-06 12:01:35.382,2678.3333333333335,298.8333333333333,2989.5,123,0.64
2024-06-06 12:01:35.533,1979.8,1192.2,3528.0,123,0.64
2024-06-06 12:01:35.726,1689.6,259.6,3650.0,123,0.64
2024-06-06 12:01:35.921,2051.0,182.5,3509.5,123,0.64
2024-06-06 12:01:36.147,2175.2,1745.4,3318.2,123,0.64
2024-06-06 12:01:36.369,-205.6,2198.2,4002.2,123,0.64
2024-06-06 12:01:36.562,-534.3333333333334,3488.5,2366.6666666666665,123,0.64
2024-06-06 12:01:36.732,-327.0,3490.2,2077.8,123,0.64
2024-06-06 12:01:36.926,-669.2,3872.2,2850.4,123,0.64
2024-06-06 12:01:37.201,-1024.8333333333333,1750.5,3829.1666666666665,123,0.64
2024-06-06 12:01:37.331,-102.8,936.0,3541.4,123,0.64
2024-06-06 12:01:37.542,1068.2,1652.6,1608.8,123,0.64
2024-06-06 12:01:37.735,-54.166666666666664,4878.0,938.0,123,0.64
2024-06-06 12:01:38.013,-1245.0,2935.4,3792.6,124,0.65
2024-06-06 12:01:38.141,-738.4,2565.2,2559.8,124,0.65
2024-06-06 12:01:38.334,-220.0,2615.6,3485.0,124,0.65
2024-06-06 12:01:38.531,217.0,-828.1666666666666,3715.6666666666665,124,0.65
2024-06-06 12:01:38.726,262.8,1118.6,4267.0,124,0.65
2024-06-06 12:01:38.996,701.6,-2560.6,3065.6,124,0.65
2024-06-06 12:01:39.130,1074.0,-2040.6666666666667,3542.6666666666665,124,0.65
2024-06-06 12:01:39.326,1332.0,-2568.2,3031.0,124,0.65
2024-06-06 12:01:39.521,930.0,-685.6,3775.8,124,0.65
2024-06-06 12:01:39.731,695.8,-390.8,3773.4,124,0.65
2024-06-06 12:01:39.991,461.5,-120.33333333333333,3777.1666666666665,124,0.65
2024-06-06 12:01:40.131,-23.8,292.6,4093.8,124,0.65
2024-06-06 12:01:40.341,578.2,867.2,4190.0,124,0.65
2024-06-06 12:01:40.536,454.3333333333333,686.5,4176.333333333333,124,0.65
2024-06-06 12:01:40.731,452.6,439.8,4233.6,124,0.65
2024-06-06 12:01:41.007,471.8,-304.0,3833.8,124,0.65
2024-06-06 12:01:41.123,817.2,10.2,4212.4,124,0.65
2024-06-06 12:01:41.334,632.1666666666666,-88.83333333333333,4154.166666666667,124,0.65
2024-06-06 12:01:41.563,717.2,579.0,4009.4,124,0.65
2024-06-06 12:01:41.726,819.6,693.4,4030.4,124,0.65
2024-06-06 12:01:42.003,854.1666666666666,1149.6666666666667,3990.0,124,0.65
2024-06-06 12:01:42.130,343.4,-325.8,4679.6,124,0.65
2024-06-06 12:01:42.326,278.8,533.2,4041.0,124,0.65
2024-06-06 12:01:42.522,658.5,552.3333333333334,3932.8333333333335,124,0.65
2024-06-06 12:01:42.801,323.2,1085.8,4189.2,124,0.65
2024-06-06 12:01:42.927,1342.8,950.2,4604.0,124,0.65
2024-06-06 12:01:43.119,-815.3333333333334,2768.1666666666665,2956.6666666666665,124,0.65
2024-06-06 12:01:43.316,-1090.4,2063.0,4019.4,124,0.65
2024-06-06 12:01:43.542,-785.2,1698.2,3610.8,124,0.65
2024-06-06 12:01:43.719,127.0,-1183.2,3917.8,124,0.65
2024-06-06 12:01:43.945,173.0,-944.6666666666666,4203.333333333333,124,0.65
2024-06-06 12:01:44.216,423.8,-990.8,4177.4,124,0.65
2024-06-06 12:01:44.331,0.2,-422.8,4129.8,124,0.65
2024-06-06 12:01:44.526,400.0,-979.1666666666666,3593.6666666666665,124,0.65
2024-06-06 12:01:44.736,1204.8,-1112.6,3766.6,124,0.65
2024-06-06 12:01:44.931,871.6,-88.0,3152.4,124,0.65
2024-06-06 12:01:45.163,340.6666666666667,-419.6666666666667,4496.5,125,0.65
2024-06-06 12:01:45.326,464.4,-23.0,4524.0,125,0.65
2024-06-06 12:01:45.535,-695.2,2019.6,2855.8,125,0.65
2024-06-06 12:01:45.730,89.5,3341.5,1344.5,125,0.65
2024-06-06 12:01:45.731,253.25,3490.75,3676.0,125,0.65
2024-06-06 12:01:45.927,-484.0,3110.8,2444.6,125,0.65
2024-06-06 12:01:46.166,-578.4,3695.2,2498.0,125,0.65
2024-06-06 12:01:46.345,70.8,3189.0,3410.0,125,0.65
2024-06-06 12:01:46.609,-494.5,1472.1666666666667,3466.8333333333335,125,0.65
2024-06-06 12:01:46.721,871.8,1539.4,3507.0,125,0.65
2024-06-06 12:01:46.932,107.0,1318.4,3587.2,125,0.65
2024-06-06 12:01:47.141,-323.3333333333333,1732.8333333333333,4223.0,125,0.65
2024-06-06 12:01:47.352,-792.4,2108.8,4037.4,125,0.65
2024-06-06 12:01:47.531,-373.0,2407.2,3910.4,125,0.65
2024-06-06 12:01:47.727,1670.1666666666667,1042.5,3072.1666666666665,125,0.65
2024-06-06 12:01:47.936,1288.2,2820.2,2847.2,125,0.65
2024-06-06 12:01:48.131,2166.6,2145.6,3286.4,125,0.65
2024-06-06 12:01:48.341,3244.6666666666665,1353.1666666666667,2485.6666666666665,125,0.65
2024-06-06 12:01:48.536,3695.6,1101.4,1907.2,125,0.65
2024-06-06 12:01:48.813,3274.2,1135.6,2926.0,125,0.65
2024-06-06 12:01:48.926,2705.2,1959.8,3811.0,125,0.65
2024-06-06 12:01:49.119,3791.6666666666665,338.6666666666667,1951.6666666666667,125,0.65
2024-06-06 12:01:49.331,3416.4,731.2,1828.6,125,0.65
2024-06-06 12:01:49.525,3308.6,1586.6,2703.4,125,0.65
2024-06-06 12:01:49.737,2808.3333333333335,1317.5,3032.5,125,0.65
2024-06-06 12:01:49.933,2788.2,1098.8,2673.4,125,0.65
2024-06-06 12:01:50.126,2977.0,1747.8,2202.8,125,0.65
2024-06-06 12:01:50.404,2041.4,1263.6,3103.2,125,0.65
2024-06-06 12:01:50.547,2397.0,1854.5,3437.8333333333335,125,0.65
2024-06-06 12:01:50.741,992.8,1201.4,2477.8,125,0.65
2024-06-06 12:01:50.934,2493.4,664.2,3158.6,125,0.65
2024-06-06 12:01:51.131,1347.6666666666667,1794.6666666666667,4313.666666666667,125,0.65
2024-06-06 12:01:51.325,880.4,910.2,3341.4,125,0.65
2024-06-06 12:01:51.604,1711.2,1855.6,4888.2,125,0.65
2024-06-06 12:01:51.732,518.1666666666666,1415.5,3981.1666666666665,125,0.65
2024-06-06 12:01:51.926,2344.6,1830.4,3710.6,125,0.65
2024-06-06 12:01:52.137,1904.6,1239.4,3674.0,125,0.65
2024-06-06 12:01:52.333,1011.0,1095.1666666666667,3259.8333333333335,125,0.65
2024-06-06 12:01:52.523,1631.6,1176.4,3264.2,125,0.65
2024-06-06 12:01:52.752,1186.0,1629.8,3738.6,125,0.65
2024-06-06 12:01:52.948,1327.6,1165.0,3416.4,125,0.65
2024-06-06 12:01:53.127,1698.5,1061.3333333333333,3936.3333333333335,125,0.65
2024-06-06 12:01:53.381,1008.8,1979.8,3826.8,125,0.65
2024-06-06 12:01:53.549,2236.6,1211.0,3418.8,125,0.65
2024-06-06 12:01:53.729,1582.1666666666667,474.6666666666667,3753.8333333333335,125,0.65
2024-06-06 12:01:53.952,1988.0,752.0,3065.0,125,0.65
2024-06-06 12:01:54.232,2305.0,784.0,3209.2,125,0.65
2024-06-06 12:01:54.326,1679.6666666666667,840.0,3878.5,125,0.65
2024-06-06 12:01:54.537,1979.0,1700.2,3380.8,125,0.65
2024-06-06 12:01:54.734,2091.0,1049.6,3963.6,125,0.65
2024-06-06 12:01:54.941,2448.5,1376.6666666666667,4087.1666666666665,125,0.65
2024-06-06 12:01:55.172,1983.4,1103.2,2614.2,125,0.65
2024-06-06 12:01:55.331,1504.0,1090.8,3826.2,125,0.65
2024-06-06 12:01:55.527,2300.0,1715.0,4021.8,125,0.65
2024-06-06 12:01:55.738,1972.5,641.3333333333334,2761.8333333333335,125,0.65
2024-06-06 12:01:55.961,1671.8,422.4,3269.2,125,0.65
2024-06-06 12:01:56.188,1482.8,1520.8,3467.4,125,0.65
2024-06-06 12:01:56.352,2182.3333333333335,1182.8333333333333,3692.3333333333335,125,0.65
2024-06-06 12:01:56.533,2050.4,1118.6,3020.6,125,0.65
2024-06-06 12:01:56.729,2286.8,885.2,3580.8,125,0.65
2024-06-06 12:01:56.954,1870.3333333333333,832.1666666666666,3065.1666666666665,125,0.65
2024-06-06 12:01:57.178,1301.2,322.4,3258.8,125,0.65
2024-06-06 12:01:57.343,2049.0,402.0,3641.0,125,0.65
2024-06-06 12:01:57.537,2650.8333333333335,529.8333333333334,3693.1666666666665,125,0.65
2024-06-06 12:01:57.831,2585.4,555.6,3048.6,125,0.65
2024-06-06 12:01:57.942,2949.6,315.6,2734.6,125,0.65
2024-06-06 12:01:58.216,2334.4,232.8,3411.0,125,0.65
2024-06-06 12:01:58.346,2049.0,446.0,3389.0,125,0.65
2024-06-06 12:01:58.528,1905.2,617.2,3966.2,125,0.65
2024-06-06 12:01:58.723,2113.8,712.6,3255.0,125,0.65
2024-06-06 12:01:58.931,2512.3333333333335,706.0,3089.1666666666665,125,0.65
2024-06-06 12:01:59.126,2724.0,581.4,3364.4,125,0.65
2024-06-06 12:01:59.338,1285.0,1012.8,3599.6,125,0.65
2024-06-06 12:01:59.531,1926.4,1002.4,3618.6,125,0.65
2024-06-06 12:01:59.727,1926.0,1193.0,3971.6666666666665,125,0.65
2024-06-06 12:01:59.921,1766.6,159.6,3551.4,125,0.65
2024-06-06 12:02:00.131,1561.2,922.6,3487.4,125,0.65
2024-06-06 12:02:00.369,2455.3333333333335,53.166666666666664,3486.3333333333335,125,0.65
2024-06-06 12:02:00.523,3077.8,20.8,3667.8,125,0.65
2024-06-06 12:02:00.732,1391.6,579.6,4309.8,125,0.65
2024-06-06 12:02:00.996,1726.0,96.33333333333333,3928.6666666666665,125,0.65
2024-06-06 12:02:01.119,1634.8,202.6,3713.0,125,0.65
2024-06-06 12:02:01.316,1109.0,27.6,3594.8,125,0.65
2024-06-06 12:02:01.590,1182.2,488.6,3984.8,125,0.65
2024-06-06 12:02:01.783,1635.0,380.3333333333333,3940.8333333333335,125,0.65
2024-06-06 12:02:01.932,1563.8,-10.8,3995.0,125,0.65
2024-06-06 12:02:02.129,1383.0,-130.2,3589.2,125,0.65
2024-06-06 12:02:02.367,1372.8333333333333,-38.833333333333336,3799.0,125,0.65
2024-06-06 12:02:02.532,1706.8,-11.8,3709.4,125,0.65
2024-06-06 12:02:02.727,2142.0,1.0,3695.6,125,0.65
2024-06-06 12:02:02.936,1732.3333333333333,217.66666666666666,3763.8333333333335,125,0.65
2024-06-06 12:02:03.134,2436.0,839.0,3071.4,125,0.65
2024-06-06 12:02:03.328,2828.0,899.2,3647.6,125,0.65
2024-06-06 12:02:03.523,2476.6666666666665,1030.5,3148.6666666666665,125,0.65
2024-06-06 12:02:03.732,2013.6,1631.4,3671.4,125,0.65
2024-06-06 12:02:03.946,1583.6,1327.6,3441.0,125,0.65
2024-06-06 12:02:04.122,1377.6,1920.8,3525.2,125,0.65
2024-06-06 12:02:04.334,2167.5,407.6666666666667,3210.5,125,0.65
2024-06-06 12:02:04.527,1861.6,135.0,3450.6,125,0.65
2024-06-06 12:02:04.738,2661.2,-441.8,2865.6,125,0.65
2024-06-06 12:02:04.946,2245.0,1947.5,3644.8333333333335,125,0.65
2024-06-06 12:02:05.126,2545.2,1960.0,3018.4,125,0.65
2024-06-06 12:02:05.396,2566.8,3176.4,2025.6,125,0.65
2024-06-06 12:02:05.546,2322.8333333333335,2943.0,1468.3333333333333,125,0.65
2024-06-06 12:02:05.743,2634.0,2867.2,992.8,125,0.65
2024-06-06 12:02:05.937,2686.0,2858.6,1140.2,125,0.65
2024-06-06 12:02:06.150,2383.6666666666665,3098.1666666666665,-4.833333333333333,125,0.65
2024-06-06 12:02:06.341,2934.6,3008.0,777.6,125,0.65
2024-06-06 12:02:06.537,3097.0,3445.8,147.0,123,0.64
2024-06-06 12:02:06.732,2938.6,3105.2,125.6,123,0.64
2024-06-06 12:02:06.957,2414.6666666666665,3113.8333333333335,184.16666666666666,123,0.64
2024-06-06 12:02:07.207,2306.0,3662.6,-141.4,123,0.64
2024-06-06 12:02:07.332,1969.0,3618.6,-930.0,123,0.64
2024-06-06 12:02:07.562,2352.8333333333335,3673.0,-263.8333333333333,123,0.64
2024-06-06 12:02:07.754,2514.6,3342.4,463.2,123,0.64
2024-06-06 12:02:07.932,2853.8,3230.4,330.2,123,0.64
2024-06-06 12:02:08.210,2489.3333333333335,2902.5,1778.8333333333333,123,0.64
2024-06-06 12:02:08.355,1924.2,3567.0,1057.6,123,0.64
2024-06-06 12:02:08.547,1964.0,3475.6,965.8,123,0.64
2024-06-06 12:02:08.729,1959.8,3343.2,1947.2,123,0.64
2024-06-06 12:02:08.949,2079.1666666666665,3604.3333333333335,1011.6666666666666,123,0.64
2024-06-06 12:02:09.130,1798.6,2934.8,2742.8,123,0.64
2024-06-06 12:02:09.344,1646.6,1986.4,2769.8,123,0.64
2024-06-06 12:02:09.539,1356.0,1845.3333333333333,3811.6666666666665,123,0.64
2024-06-06 12:02:09.766,790.4,1874.6,3362.0,123,0.64
2024-06-06 12:02:09.970,980.4,1171.8,3636.0,123,0.64
2024-06-06 12:02:10.167,445.0,1212.8,3846.0,123,0.64
2024-06-06 12:02:10.332,1219.6666666666667,1313.5,3852.0,123,0.64
2024-06-06 12:02:10.543,1132.4,1288.2,4115.2,123,0.64
2024-06-06 12:02:10.823,1327.8,522.4,3523.2,123,0.64
2024-06-06 12:02:10.933,1749.8333333333333,91.0,3669.3333333333335,123,0.64
2024-06-06 12:02:11.129,1475.8,894.2,3530.6,123,0.64
2024-06-06 12:02:11.356,1651.2,1471.0,4003.4,123,0.64
2024-06-06 12:02:11.531,2294.8333333333335,2066.6666666666665,3156.6666666666665,123,0.64
2024-06-06 12:02:11.812,1218.4,2327.0,3745.0,123,0.64
2024-06-06 12:02:11.923,1260.4,3083.6,3572.0,123,0.64
2024-06-06 12:02:12.186,1682.5,1895.3333333333333,2706.6666666666665,123,0.64
2024-06-06 12:02:12.327,1502.0,1956.0,3106.6,123,0.64
2024-06-06 12:02:12.522,1350.0,2232.8,3637.8,123,0.64
2024-06-06 12:02:12.747,1312.6,1895.0,3145.0,123,0.64
2024-06-06 12:02:12.977,2162.6666666666665,2175.3333333333335,3164.3333333333335,123,0.64
2024-06-06 12:02:13.120,1112.6,2418.4,3700.8,123,0.64
2024-06-06 12:02:13.348,1357.6,1886.4,3091.2,123,0.64
2024-06-06 12:02:13.538,1307.1666666666667,1858.5,3536.6666666666665,123,0.64
2024-06-06 12:02:13.737,1119.0,1300.6,3220.0,123,0.64
2024-06-06 12:02:13.929,1889.4,1707.8,3609.6,123,0.64
2024-06-06 12:02:14.127,1840.8333333333333,1042.3333333333333,3557.6666666666665,125,0.65
2024-06-06 12:02:14.338,464.0,2024.6,3596.2,125,0.65
2024-06-06 12:02:14.611,1665.6,1288.8,3943.8,125,0.65
2024-06-06 12:02:14.727,1504.8333333333333,1231.5,3560.6666666666665,125,0.65
2024-06-06 12:02:14.937,868.8,1149.0,3426.6,125,0.65
2024-06-06 12:02:15.131,2008.4,1135.8,3042.8,125,0.65
2024-06-06 12:02:15.410,1515.4,1225.0,4055.4,125,0.65
2024-06-06 12:02:15.551,1111.3333333333333,1389.6666666666667,3704.6666666666665,125,0.65
2024-06-06 12:02:15.749,2213.0,1668.2,3431.2,125,0.65
2024-06-06 12:02:15.927,502.2,1340.6,3629.8,125,0.65
2024-06-06 12:02:16.214,2349.3333333333335,1354.8333333333333,2885.0,125,0.65
2024-06-06 12:02:16.331,1127.8,1354.6,4598.4,125,0.65
2024-06-06 12:02:16.567,1543.8,2119.2,3096.8,125,0.65
2024-06-06 12:02:16.753,2829.0,1018.3333333333334,3337.1666666666665,125,0.65
2024-06-06 12:02:16.977,1041.2,847.6,3325.8,125,0.65
2024-06-06 12:02:17.144,2435.8,994.4,3253.0,125,0.65
2024-06-06 12:02:17.339,1988.6666666666667,1232.1666666666667,3405.0,125,0.65
2024-06-06 12:02:17.533,1875.8,1039.8,3984.4,125,0.65
2024-06-06 12:02:17.742,1920.0,1209.8,2807.2,125,0.65
2024-06-06 12:02:17.969,1930.8,637.6,3441.4,125,0.65
2024-06-06 12:02:18.135,2281.5,1200.0,3075.0,125,0.65
2024-06-06 12:02:18.324,1500.0,1287.6,3473.0,125,0.65
2024-06-06 12:02:18.540,1910.2,1349.2,3127.4,125,0.65
2024-06-06 12:02:18.816,1956.5,1053.0,3788.5,125,0.65
2024-06-06 12:02:18.928,1916.8,1120.4,2781.8,125,0.65
2024-06-06 12:02:19.135,2180.8,740.2,3335.0,125,0.65
2024-06-06 12:02:19.334,1730.0,1866.6,3536.8,125,0.65
2024-06-06 12:02:19.528,2301.8333333333335,2480.0,2435.8333333333335,125,0.65
2024-06-06 12:02:19.723,2252.4,679.8,4553.4,125,0.65
2024-06-06 12:02:19.933,2524.8,831.0,4521.4,125,0.65
2024-06-06 12:02:20.128,1928.5,1092.6666666666667,3207.8333333333335,125,0.65
2024-06-06 12:02:20.323,1678.4,920.2,3729.8,125,0.65
2024-06-06 12:02:20.532,2231.6,837.4,3225.6,125,0.65
2024-06-06 12:02:20.730,2321.5,1291.8333333333333,3307.6666666666665,125,0.65
2024-06-06 12:02:20.962,1539.0,675.4,3857.8,125,0.65
2024-06-06 12:02:21.131,1765.8,472.4,3407.4,125,0.65
2024-06-06 12:02:21.326,2458.2,1659.2,3159.0,125,0.65
2024-06-06 12:02:21.522,2566.5,905.5,3372.6666666666665,125,0.65
2024-06-06 12:02:21.733,1475.4,2054.2,3395.6,125,0.65
2024-06-06 12:02:21.931,1961.6,2052.8,3026.0,125,0.65
2024-06-06 12:02:22.208,1764.6666666666667,1327.6666666666667,3311.3333333333335,128,0.67
2024-06-06 12:02:22.347,1698.0,1817.8,3324.0,128,0.67
2024-06-06 12:02:22.527,2007.6,2251.6,4105.8,128,0.67
2024-06-06 12:02:22.754,2704.3333333333335,1027.8333333333333,4369.833333333333,128,0.67
2024-06-06 12:02:22.931,2192.0,926.4,3975.0,128,0.67
2024-06-06 12:02:23.128,1654.2,1202.6,2830.8,128,0.67
2024-06-06 12:02:23.324,1968.3333333333333,1323.6666666666667,4131.666666666667,128,0.67
2024-06-06 12:02:23.547,1837.8,412.8,2845.6,128,0.67
2024-06-06 12:02:23.742,2229.6,1502.2,3036.6,128,0.67
2024-06-06 12:02:23.927,1497.2,1130.0,3617.8,128,0.67
2024-06-06 12:02:24.167,2034.1666666666667,1254.8333333333333,3341.6666666666665,128,0.67
2024-06-06 12:02:24.342,1899.2,680.0,3353.6,128,0.67
2024-06-06 12:02:24.537,2058.4,1103.6,2839.6,128,0.67
2024-06-06 12:02:24.732,1642.6666666666667,812.1666666666666,3720.0,128,0.67
2024-06-06 12:02:24.934,2582.0,1682.0,3704.0,128,0.67
2024-06-06 12:02:25.139,2108.6,1772.0,3493.0,128,0.67
2024-06-06 12:02:25.335,1818.5,1378.5,3235.8333333333335,128,0.67
2024-06-06 12:02:25.527,2180.2,600.0,3272.4,128,0.67
2024-06-06 12:02:25.912,2267.0,1420.4,3538.2,128,0.67
2024-06-06 12:02:25.931,2003.3333333333333,1322.0,3867.8333333333335,128,0.67
2024-06-06 12:02:26.166,1893.0,1341.4,3201.0,128,0.67
2024-06-06 12:02:26.355,2386.4,1822.0,3211.8,128,0.67
2024-06-06 12:02:26.578,1802.0,912.4,3498.2,128,0.67
2024-06-06 12:02:26.742,1240.1666666666667,1878.0,3874.0,128,0.67
2024-06-06 12:02:26.937,1856.8,181.2,3492.0,128,0.67
2024-06-06 12:02:27.133,2496.8,1929.2,3438.0,128,0.67
2024-06-06 12:02:27.387,1569.1666666666667,2463.0,4290.666666666667,128,0.67
2024-06-06 12:02:27.538,1988.6,1154.2,2204.8,126,0.66
2024-06-06 12:02:27.735,1843.4,1532.8,3704.6,126,0.66
2024-06-06 12:02:27.927,2221.8333333333335,1187.3333333333333,3279.8333333333335,126,0.66
2024-06-06 12:02:28.217,1968.2,557.8,2988.4,126,0.66
2024-06-06 12:02:28.332,1928.4,1410.0,3569.6,126,0.66
2024-06-06 12:02:28.527,2054.6666666666665,1130.1666666666667,3252.8333333333335,126,0.66
2024-06-06 12:02:28.753,2024.2,1405.2,2912.2,126,0.66
2024-06-06 12:02:28.951,2475.2,1018.6,3084.0,126,0.66
2024-06-06 12:02:29.172,2110.8,880.0,3033.8,126,0.66
2024-06-06 12:02:29.339,2186.0,1654.3333333333333,3829.1666666666665,126,0.66
2024-06-06 12:02:29.634,2005.6,787.2,2806.2,126,0.66
2024-06-06 12:02:29.745,2342.4,1136.0,3306.8,126,0.66
2024-06-06 12:02:29.924,1852.6666666666667,1518.5,3807.0,126,0.66
2024-06-06 12:02:30.211,1975.0,836.0,3463.8,126,0.66
2024-06-06 12:02:30.343,2344.4,1162.0,3831.0,126,0.66
2024-06-06 12:02:30.538,2607.4,432.8,1908.6,126,0.66
2024-06-06 12:02:30.733,1982.8333333333333,1031.5,3763.8333333333335,126,0.66
2024-06-06 12:02:30.928,1691.4,1264.8,3613.8,126,0.66
2024-06-06 12:02:31.179,2054.8,1584.4,3699.2,126,0.66
2024-06-06 12:02:31.332,2035.8333333333333,1344.3333333333333,2799.8333333333335,126,0.66
2024-06-06 12:02:31.543,1844.4,893.6,2529.6,126,0.66
2024-06-06 12:02:31.722,1768.0,1844.4,4216.2,126,0.66
2024-06-06 12:02:31.933,1906.8333333333333,959.0,2794.6666666666665,126,0.66
2024-06-06 12:02:32.171,1702.8,774.2,3871.8,126,0.66
2024-06-06 12:02:32.353,1828.6,1303.6,3381.4,126,0.66
2024-06-06 12:02:32.549,2175.8,818.2,4007.4,126,0.66
2024-06-06 12:02:32.744,1916.3333333333333,1132.0,3912.1666666666665,126,0.66
2024-06-06 12:02:32.940,2165.8,1302.0,2986.8,126,0.66
2024-06-06 12:02:33.133,2333.2,632.8,3196.6,126,0.66
2024-06-06 12:02:33.410,1998.0,911.3333333333334,3734.8333333333335,126,0.66
2024-06-06 12:02:33.542,2335.6,917.4,2771.8,126,0.66
2024-06-06 12:02:33.735,2133.0,1997.6,3405.6,126,0.66
2024-06-06 12:02:33.928,1749.8333333333333,1045.5,3292.0,126,0.66
2024-06-06 12:02:34.154,1862.2,640.4,3102.8,126,0.66
2024-06-06 12:02:34.332,1753.2,1653.2,4381.0,126,0.66
2024-06-06 12:02:34.542,2252.1666666666665,356.6666666666667,3456.3333333333335,126,0.66
2024-06-06 12:02:34.722,2195.4,821.4,2898.4,126,0.66
2024-06-06 12:02:34.979,2059.2,932.6,3204.8,126,0.66
2024-06-06 12:02:35.128,2053.8,1646.6,3570.6,126,0.66
2024-06-06 12:02:35.321,2097.0,1391.6666666666667,4939.666666666667,126,0.66
2024-06-06 12:02:35.552,1438.8,868.6,2293.0,126,0.66
2024-06-06 12:02:35.776,2300.2,1562.2,3180.6,126,0.66
2024-06-06 12:02:35.999,1628.8333333333333,563.8333333333334,2814.6666666666665,126,0.66
2024-06-06 12:02:36.149,1977.4,1627.2,3297.4,126,0.66
2024-06-06 12:02:36.330,1527.0,853.2,3488.4,126,0.66
2024-06-06 12:02:36.538,2383.8333333333335,1303.8333333333333,3285.8333333333335,126,0.66
2024-06-06 12:02:36.732,2478.0,2595.0,5668.0,126,0.66
2024-06-06 12:02:36.733,1661.75,1297.25,3771.25,126,0.66
2024-06-06 12:02:37.011,1617.6,1508.6,4103.2,126,0.66
2024-06-06 12:02:37.215,1823.1666666666667,1037.3333333333333,1997.8333333333333,126,0.66
2024-06-06 12:02:37.334,1919.4,2254.2,2811.0,126,0.66
2024-06-06 12:02:37.527,2752.6,1688.6,3706.4,126,0.66
2024-06-06 12:02:37.751,1714.0,1822.2,4456.4,126,0.66
2024-06-06 12:02:38.030,1784.6666666666667,994.8333333333334,2891.8333333333335,126,0.66
2024-06-06 12:02:38.127,1445.8,1203.8,3036.6,126,0.66
2024-06-06 12:02:38.357,2490.8,1629.6,3803.8,126,0.66
2024-06-06 12:02:38.550,1832.8333333333333,1169.1666666666667,3111.1666666666665,127,0.66
2024-06-06 12:02:38.742,2175.4,1511.2,4221.0,127,0.66
2024-06-06 12:02:38.951,1813.8,603.0,3711.6,127,0.66
2024-06-06 12:02:39.131,2456.1666666666665,805.1666666666666,2600.6666666666665,127,0.66
2024-06-06 12:02:39.368,1826.6,751.4,2838.2,127,0.66
2024-06-06 12:02:39.518,2043.4,1428.2,3615.4,127,0.66
2024-06-06 12:02:39.795,1940.0,1272.4,2942.0,127,0.66
2024-06-06 12:02:39.943,2264.6666666666665,1448.3333333333333,3851.1666666666665,127,0.66
2024-06-06 12:02:40.137,2410.6,949.6,3091.2,127,0.66
2024-06-06 12:02:40.331,1506.2,1361.2,3236.6,127,0.66
2024-06-06 12:02:40.580,1938.8333333333333,1439.3333333333333,3408.1666666666665,127,0.66
2024-06-06 12:02:40.825,2276.0,1126.0,3433.4,127,0.66
2024-06-06 12:02:40.992,2673.0,1175.6,3426.6,127,0.66
2024-06-06 12:02:41.130,1667.0,783.0,3526.2,127,0.66
2024-06-06 12:02:41.322,2465.8333333333335,1687.8333333333333,3495.1666666666665,127,0.66
2024-06-06 12:02:41.532,1376.8,817.0,4971.8,127,0.66
2024-06-06 12:02:41.796,2048.0,832.6,3401.2,127,0.66
2024-06-06 12:02:41.955,1802.0,506.3333333333333,3947.5,127,0.66
2024-06-06 12:02:42.150,1875.0,1069.0,2599.0,127,0.66
2024-06-06 12:02:42.324,2301.2,559.4,2998.2,127,0.66
2024-06-06 12:02:42.552,2044.8333333333333,1641.0,3362.3333333333335,127,0.66
2024-06-06 12:02:42.752,2030.0,1155.8,3721.0,127,0.66
2024-06-06 12:02:42.942,1647.4,814.6,3479.8,127,0.66
2024-06-06 12:02:43.125,2810.6666666666665,936.8333333333334,3364.8333333333335,127,0.66
2024-06-06 12:02:43.331,2051.6,948.2,2804.4,127,0.66
2024-06-06 12:02:43.628,2523.2,1201.0,2865.8,127,0.66
2024-06-06 12:02:43.723,2279.6,811.6,3031.6,127,0.66
2024-06-06 12:02:43.935,2046.1666666666667,1293.8333333333333,3478.5,127,0.66
2024-06-06 12:02:44.209,2174.2,1260.8,3693.4,127,0.66
2024-06-06 12:02:44.338,2523.2,1366.2,3184.6,127,0.66
2024-06-06 12:02:44.536,2146.0,1350.8333333333333,3274.8333333333335,127,0.66
2024-06-06 12:02:44.809,2125.2,869.0,2898.6,127,0.66
2024-06-06 12:02:44.955,1868.2,1064.2,3206.0,127,0.66
2024-06-06 12:02:45.195,2530.0,1564.8333333333333,4235.166666666667,127,0.66
2024-06-06 12:02:45.389,1805.2,525.2,3264.2,127,0.66
2024-06-06 12:02:45.538,1738.0,1450.2,3775.0,127,0.66
2024-06-06 12:02:45.731,2255.3333333333335,907.6666666666666,3261.1666666666665,127,0.66
2024-06-06 12:02:45.929,1751.2,803.2,3183.2,127,0.66
2024-06-06 12:02:46.154,1902.4,836.6,3407.6,128,0.67
2024-06-06 12:02:46.404,1474.0,2464.8,3355.4,128,0.67
2024-06-06 12:02:46.527,1932.1666666666667,747.5,2339.8333333333335,128,0.67
2024-06-06 12:02:46.738,2364.6,1644.2,4188.2,128,0.67
2024-06-06 12:02:46.932,2241.4,909.4,3556.8,128,0.67
2024-06-06 12:02:47.141,1922.6666666666667,1525.8333333333333,2368.5,128,0.67
2024-06-06 12:02:47.337,2988.4,928.2,3435.8,128,0.67
2024-06-06 12:02:47.572,1859.0,1083.4,4175.4,128,0.67
2024-06-06 12:02:47.743,2302.5,901.8333333333334,3708.1666666666665,128,0.67
2024-06-06 12:02:47.939,2028.8,1164.2,3312.0,128,0.67
2024-06-06 12:02:48.229,2507.0,885.2,3510.6,128,0.67
2024-06-06 12:02:48.383,-146.0,2343.0,2991.0,128,0.67
2024-06-06 12:02:48.384,2701.2,1107.8,2729.8,128,0.67
2024-06-06 12:02:48.539,2118.8,1794.2,3454.2,128,0.67
2024-06-06 12:02:48.735,2209.8,1573.0,4196.0,128,0.67
2024-06-06 12:02:48.927,2186.4,774.2,2626.4,128,0.67
2024-06-06 12:02:49.141,2624.3333333333335,948.1666666666666,2190.3333333333335,128,0.67
2024-06-06 12:02:49.335,2611.6,677.2,3954.6,128,0.67
2024-06-06 12:02:49.527,2093.8,1827.4,3434.0,128,0.67
2024-06-06 12:02:49.785,2198.0,1179.1666666666667,3461.1666666666665,128,0.67
2024-06-06 12:02:49.932,1425.0,861.8,4616.4,128,0.67
2024-06-06 12:02:50.129,1811.2,1356.0,2984.8,128,0.67
2024-06-06 12:02:50.336,2205.4,1258.8,4003.4,128,0.67
2024-06-06 12:02:50.535,1693.1666666666667,543.1666666666666,3010.6666666666665,128,0.67
2024-06-06 12:02:50.774,2410.6,1601.2,3924.2,128,0.67
2024-06-06 12:02:50.923,2206.6,1505.4,3273.6,128,0.67
2024-06-06 12:02:51.136,1887.1666666666667,1014.5,3328.3333333333335,128,0.67
2024-06-06 12:02:51.328,1717.4,1322.4,2916.2,128,0.67
2024-06-06 12:02:51.524,2133.8,966.2,2972.8,128,0.67
2024-06-06 12:02:51.801,2483.0,989.0,3851.3333333333335,128,0.67
2024-06-06 12:02:51.944,2401.2,983.0,3014.8,128,0.67
2024-06-06 12:02:52.223,1982.4,1211.4,3664.6,128,0.67
2024-06-06 12:02:52.333,1866.6,900.8,2837.4,128,0.67
2024-06-06 12:02:52.528,2058.1666666666665,802.8333333333334,3596.3333333333335,128,0.67
2024-06-06 12:02:52.819,2213.8,1336.6,3324.2,128,0.67
2024-06-06 12:02:52.949,1531.8,906.6,3278.4,128,0.67
2024-06-06 12:02:53.140,2459.1666666666665,1414.6666666666667,4017.6666666666665,128,0.67
2024-06-06 12:02:53.338,1532.4,1114.4,2739.2,128,0.67
2024-06-06 12:02:53.576,2005.8,901.2,2762.4,128,0.67
2024-06-06 12:02:53.731,2242.8333333333335,1253.3333333333333,3651.3333333333335,128,0.67
2024-06-06 12:02:53.923,1567.6,922.8,2975.4,128,0.67
2024-06-06 12:02:54.132,1891.4,1072.2,3125.8,128,0.67
2024-06-06 12:02:54.329,2335.3333333333335,1086.6666666666667,4079.5,128,0.67
2024-06-06 12:02:54.522,2149.0,993.5,2318.5,128,0.67
2024-06-06 12:02:54.523,2073.3333333333335,1469.0,3382.6666666666665,128,0.67
2024-06-06 12:02:54.732,2719.8,832.6,4002.0,128,0.67
2024-06-06 12:02:54.961,1834.6,1695.0,3687.6,128,0.67
2024-06-06 12:02:55.153,1986.8333333333333,914.8333333333334,3309.1666666666665,128,0.67
2024-06-06 12:02:55.350,2234.2,1380.0,3875.6,128,0.67
2024-06-06 12:02:55.541,1186.0,933.0,2869.0,128,0.67
2024-06-06 12:02:55.753,1910.8333333333333,1168.1666666666667,3266.0,128,0.67
2024-06-06 12:02:56.034,2023.8,1863.8,4518.2,128,0.67
2024-06-06 12:02:56.143,2247.6,1126.0,2984.6,128,0.67
2024-06-06 12:02:56.339,1689.5,1068.8333333333333,3112.3333333333335,128,0.67
2024-06-06 12:02:56.615,2753.0,904.4,3477.2,128,0.67
2024-06-06 12:02:56.742,2056.2,991.6,3791.0,128,0.67
2024-06-06 12:02:56.938,2333.0,956.6666666666666,2912.3333333333335,128,0.67
2024-06-06 12:02:57.132,1696.8,1346.8,3838.0,130,0.68
2024-06-06 12:02:57.369,1465.4,1194.6,3688.2,130,0.68
2024-06-06 12:02:57.537,1869.2,960.4,3206.6,130,0.68
2024-06-06 12:02:57.733,2750.6666666666665,1093.0,3517.0,130,0.68
2024-06-06 12:02:57.962,1857.8,1331.2,2737.6,130,0.68
2024-06-06 12:02:58.152,2090.2,1070.4,3545.8,130,0.68
2024-06-06 12:02:58.331,2336.5,1182.5,3517.5,130,0.68
2024-06-06 12:02:58.528,2278.8,1308.0,3884.6,130,0.68
2024-06-06 12:02:58.754,2420.4,1329.6,4164.0,130,0.68
2024-06-06 12:02:58.948,1566.8333333333333,1610.1666666666667,4615.833333333333,130,0.68
2024-06-06 12:02:59.130,2241.6,631.0,2411.0,130,0.68
2024-06-06 12:02:59.365,1994.0,1465.4,3421.4,130,0.68
2024-06-06 12:02:59.549,3002.8,579.4,3420.8,130,0.68
2024-06-06 12:02:59.917,1787.0,1994.6666666666667,4463.5,130,0.68
2024-06-06 12:02:59.927,2237.6,885.6,3272.4,130,0.68
2024-06-06 12:03:00.135,1926.0,861.0,3180.2,130,0.68
2024-06-06 12:03:00.390,2214.8333333333335,1606.0,3722.1666666666665,130,0.68
2024-06-06 12:03:00.538,2234.2,1727.4,3580.2,130,0.68
2024-06-06 12:03:00.732,2331.6,1348.8,3671.0,130,0.68
2024-06-06 12:03:00.962,1610.0,1174.2,3174.4,130,0.68
2024-06-06 12:03:01.135,1956.8333333333333,1103.6666666666667,3517.6666666666665,130,0.68
2024-06-06 12:03:01.329,2566.6,1006.6,3910.4,130,0.68
2024-06-06 12:03:01.528,1760.0,955.4,3889.4,130,0.68
2024-06-06 12:03:01.723,1970.8333333333333,1302.3333333333333,3685.5,130,0.68
2024-06-06 12:03:01.933,1732.8,1169.4,2640.2,130,0.68
2024-06-06 12:03:02.127,1579.0,371.0,3195.0,131,0.68
2024-06-06 12:03:02.128,2529.25,1118.25,3200.75,131,0.68
2024-06-06 12:03:02.353,1917.5,1192.1666666666667,3595.3333333333335,131,0.68
2024-06-06 12:03:02.547,2438.2,1211.6,3084.0,131,0.68
2024-06-06 12:03:02.726,2085.4,1030.2,3637.6,131,0.68
2024-06-06 12:03:02.938,2089.3333333333335,781.1666666666666,3022.6666666666665,131,0.68
2024-06-06 12:03:03.203,2136.4,1250.6,3533.6,131,0.68
2024-06-06 12:03:03.342,2041.8,1026.6,3489.4,131,0.68
2024-06-06 12:03:03.604,1968.8,1312.2,3503.8,131,0.68
2024-06-06 12:03:03.733,2178.1666666666665,897.5,3646.1666666666665,131,0.68
2024-06-06 12:03:03.959,2550.8,896.2,2897.0,131,0.68
2024-06-06 12:03:04.188,2076.4,1189.8,2905.6,131,0.68
2024-06-06 12:03:04.334,2122.6666666666665,1048.3333333333333,3329.8333333333335,131,0.68
2024-06-06 12:03:04.529,2102.0,1358.4,3911.4,131,0.68
2024-06-06 12:03:04.725,1991.0,2236.4,3441.8,131,0.68
2024-06-06 12:03:04.933,2645.0,1126.3333333333333,3673.1666666666665,131,0.68
2024-06-06 12:03:05.126,1773.8,638.2,3111.2,131,0.68
2024-06-06 12:03:05.353,2459.8,1053.4,3623.6,131,0.68
2024-06-06 12:03:05.549,2444.3333333333335,892.1666666666666,3440.0,131,0.68
2024-06-06 12:03:05.743,2585.8,989.8,3486.6,131,0.68
2024-06-06 12:03:05.953,1776.0,1117.4,3713.8,131,0.68
2024-06-06 12:03:06.147,2535.5,1011.25,3141.0,131,0.68
2024-06-06 12:03:06.148,108.0,1280.0,2051.0,131,0.68
2024-06-06 12:03:06.344,2372.8333333333335,801.8333333333334,3177.6666666666665,131,0.68
2024-06-06 12:03:06.537,2702.0,75.5,3652.0,131,0.68
2024-06-06 12:03:06.538,2708.3333333333335,598.0,2764.0,131,0.68
2024-06-06 12:03:06.766,1995.2,802.4,3489.2,131,0.68
2024-06-06 12:03:06.926,1985.6666666666667,1076.6666666666667,3364.5,131,0.68
2024-06-06 12:03:07.138,2544.2,322.4,2739.0,131,0.68
2024-06-06 12:03:07.415,2259.4,1215.4,3310.0,131,0.68
2024-06-06 12:03:07.527,2752.6666666666665,765.6666666666666,2992.8333333333335,132,0.69
2024-06-06 12:03:07.803,1985.8,946.6,3415.6,132,0.69
2024-06-06 12:03:07.933,2427.8,771.8,3267.2,132,0.69
2024-06-06 12:03:08.157,1952.1666666666667,788.6666666666666,3393.8333333333335,132,0.69
2024-06-06 12:03:08.336,2706.8,839.2,3119.6,132,0.69
2024-06-06 12:03:08.547,2012.4,850.2,3486.8,132,0.69
2024-06-06 12:03:08.772,2343.6,805.0,3315.2,132,0.69
2024-06-06 12:03:08.937,2412.1666666666665,626.5,3326.0,132,0.69
2024-06-06 12:03:09.150,2088.0,646.2,3285.2,132,0.69
2024-06-06 12:03:09.343,2247.4,669.2,3240.4,132,0.69
2024-06-06 12:03:09.538,2068.0,1090.3333333333333,3601.5,132,0.69
2024-06-06 12:03:09.795,2438.4,541.8,3485.8,132,0.69
2024-06-06 12:03:09.939,2205.4,507.2,2845.8,132,0.69
2024-06-06 12:03:10.134,2374.8,768.8,3817.4,132,0.69
2024-06-06 12:03:10.334,1843.0,704.0,3088.3333333333335,132,0.69
2024-06-06 12:03:10.542,2385.6,1013.4,4077.2,132,0.69
2024-06-06 12:03:10.723,2366.4,664.4,3106.2,132,0.69
2024-06-06 12:03:10.932,2333.3333333333335,870.8333333333334,3326.5,132,0.69
2024-06-06 12:03:11.213,2961.0,541.0,3036.4,132,0.69
2024-06-06 12:03:11.338,2073.0,118.6,3947.8,132,0.69
2024-06-06 12:03:11.602,2177.8333333333335,759.8333333333334,2646.3333333333335,132,0.69
2024-06-06 12:03:11.728,2371.6,827.8,3098.2,132,0.69
2024-06-06 12:03:11.941,2285.0,835.8,3224.0,132,0.69
2024-06-06 12:03:12.148,2562.0,598.2,3580.6,132,0.69
2024-06-06 12:03:12.327,1920.1666666666667,927.6666666666666,3276.5,132,0.69
2024-06-06 12:03:12.611,2290.6,573.2,3085.0,132,0.69
2024-06-06 12:03:12.749,2502.4,1037.8,3414.4,132,0.69
2024-06-06 12:03:12.928,2479.0,1409.5,3560.0,132,0.69
2024-06-06 12:03:13.124,2417.0,683.8,3275.8,132,0.69
2024-06-06 12:03:13.349,1695.2,1789.2,3635.2,132,0.69
2024-06-06 12:03:13.621,1933.1666666666667,982.0,3623.5,132,0.69
2024-06-06 12:03:13.738,2416.2,965.2,3575.8,132,0.69
2024-06-06 12:03:13.968,1761.4,1094.8,3605.0,132,0.69
2024-06-06 12:03:14.143,2427.8,975.4,3280.6,132,0.69
2024-06-06 12:03:14.336,2415.6666666666665,628.3333333333334,3188.1666666666665,132,0.69
2024-06-06 12:03:14.579,2431.4,1057.6,3035.4,132,0.69
2024-06-06 12:03:14.729,2505.25,1048.25,3419.0,132,0.69
2024-06-06 12:03:14.730,174.0,2596.0,3384.0,132,0.69
2024-06-06 12:03:14.997,2184.8333333333335,987.1666666666666,3645.0,132,0.69
2024-06-06 12:03:15.132,2380.2,615.8,3349.8,132,0.69
2024-06-06 12:03:15.329,2303.2,1146.4,3359.8,132,0.69
2024-06-06 12:03:15.607,2007.8333333333333,968.0,3266.3333333333335,132,0.69
2024-06-06 12:03:15.733,2452.0,1174.4,3645.0,132,0.69
2024-06-06 12:03:15.929,2185.6,1041.8,3452.8,132,0.69
2024-06-06 12:03:16.153,2257.6666666666665,600.1666666666666,3307.1666666666665,132,0.69
2024-06-06 12:03:16.347,2051.6,562.0,3355.4,132,0.69
2024-06-06 12:03:16.542,1728.8,606.0,4073.2,132,0.69
2024-06-06 12:03:16.738,2299.6666666666665,530.8333333333334,3482.6666666666665,132,0.69
2024-06-06 12:03:16.983,2466.6,448.4,2711.2,132,0.69
2024-06-06 12:03:17.144,2395.2,1035.8,3670.4,132,0.69
2024-06-06 12:03:17.408,2481.4,1625.4,4044.8,132,0.69
2024-06-06 12:03:17.534,1896.3333333333333,1420.0,3288.0,131,0.68
2024-06-06 12:03:17.727,2066.6,1383.8,3109.6,131,0.68
2024-06-06 12:03:17.941,1999.2,882.8,3448.2,131,0.68
2024-06-06 12:03:18.133,2753.3333333333335,965.6666666666666,2846.1666666666665,131,0.68
2024-06-06 12:03:18.409,2534.8,1465.2,3730.8,131,0.68
2024-06-06 12:03:18.581,2472.6,1148.2,3038.8,131,0.68
2024-06-06 12:03:18.733,2179.5,1119.3333333333333,3331.8333333333335,131,0.68
2024-06-06 12:03:18.927,2374.0,1524.2,3227.0,131,0.68
2024-06-06 12:03:19.137,2066.6,1336.6,3195.0,131,0.68
2024-06-06 12:03:19.329,2161.0,1219.0,2859.8,131,0.68
2024-06-06 12:03:19.530,1303.8333333333333,1410.1666666666667,3549.3333333333335,131,0.68
2024-06-06 12:03:19.737,2226.4,1790.2,3636.2,131,0.68
2024-06-06 12:03:19.934,2748.2,1186.4,3767.4,131,0.68
2024-06-06 12:03:20.127,2152.0,1488.1666666666667,3308.5,131,0.68
2024-06-06 12:03:20.322,2281.8,1133.0,3677.4,131,0.68
2024-06-06 12:03:20.534,1837.8,1527.4,3505.8,131,0.68
2024-06-06 12:03:20.728,1337.6,1122.8,3190.8,131,0.68
2024-06-06 12:03:20.958,1989.1666666666667,1148.0,3450.1666666666665,131,0.68
2024-06-06 12:03:21.236,1161.6,1715.6,3722.0,131,0.68
2024-06-06 12:03:21.343,1930.4,1437.2,3388.4,131,0.68
2024-06-06 12:03:21.519,2347.0,1263.0,4590.0,130,0.68
2024-06-06 12:03:21.520,1902.0,1161.0,2731.8,130,0.68
2024-06-06 12:03:21.735,1828.8,2140.4,4189.4,130,0.68
2024-06-06 12:03:21.929,1934.2,552.6,3747.8,130,0.68
2024-06-06 12:03:22.201,1705.0,1838.8333333333333,3904.8333333333335,130,0.68
2024-06-06 12:03:22.373,2045.6,1156.4,3278.4,130,0.68
2024-06-06 12:03:22.542,1974.4,1449.0,2959.0,130,0.68
2024-06-06 12:03:22.757,1812.8,987.0,3621.8,130,0.68
2024-06-06 12:03:22.951,1683.5,1423.6666666666667,3952.0,130,0.68
2024-06-06 12:03:23.226,2231.4,1500.0,3066.8,130,0.68
2024-06-06 12:03:23.337,1734.6,959.8,3660.6,130,0.68
2024-06-06 12:03:23.532,2020.3333333333333,1490.5,4157.333333333333,130,0.68
2024-06-06 12:03:23.742,2025.8,1390.8,2650.6,130,0.68
2024-06-06 12:03:24.015,1883.75,1887.0,4431.25,130,0.68
2024-06-06 12:03:24.016,1964.0,1627.0,2679.0,130,0.68
2024-06-06 12:03:24.129,2314.8333333333335,1360.5,3382.3333333333335,130,0.68
2024-06-06 12:03:24.324,1554.4,1480.4,4399.0,130,0.68
2024-06-06 12:03:24.534,2256.8,1579.8,3118.4,130,0.68
2024-06-06 12:03:24.759,1756.8333333333333,1169.0,2430.3333333333335,130,0.68
2024-06-06 12:03:24.924,2534.4,681.0,3202.0,130,0.68
2024-06-06 12:03:25.155,1746.6,1145.6,3109.4,130,0.68
2024-06-06 12:03:25.381,1971.0,1230.4,3489.6,130,0.68
2024-06-06 12:03:25.524,2194.6666666666665,1331.5,2633.1666666666665,130,0.68
2024-06-06 12:03:25.775,4439.0,2101.0,6407.0,130,0.68
2024-06-06 12:03:25.776,1135.25,1203.75,4803.25,130,0.68
2024-06-06 12:03:25.934,1999.4,582.4,3398.0,130,0.68
2024-06-06 12:03:26.228,1928.8333333333333,1628.8333333333333,3216.0,130,0.68
2024-06-06 12:03:26.339,1884.6,1254.0,3041.0,130,0.68
2024-06-06 12:03:26.552,2094.4,1552.8,3190.6,130,0.68
2024-06-06 12:03:26.742,1137.5,1686.6666666666667,2784.1666666666665,130,0.68
2024-06-06 12:03:26.939,1856.2,1240.4,3243.4,130,0.68
2024-06-06 12:03:27.147,1668.0,1325.8,2963.6,130,0.68
2024-06-06 12:03:27.345,2411.1666666666665,1482.8333333333333,4009.0,130,0.68
2024-06-06 12:03:27.538,2554.6,947.4,3132.0,130,0.68
2024-06-06 12:03:27.733,1699.4,1392.4,4076.2,130,0.68
2024-06-06 12:03:27.959,2956.6,1365.0,2320.6,130,0.68
2024-06-06 12:03:28.137,1857.5,762.3333333333334,3539.0,129,0.67
2024-06-06 12:03:28.332,2759.0,1045.8,4937.2,129,0.67
2024-06-06 12:03:28.531,2336.2,1123.4,3223.0,129,0.67
2024-06-06 12:03:28.756,1738.8333333333333,1390.1666666666667,3313.8333333333335,129,0.67
2024-06-06 12:03:28.933,2776.8,1818.6,2675.8,129,0.67
2024-06-06 12:03:29.130,1475.4,1488.8,4562.0,129,0.67
2024-06-06 12:03:29.350,1823.8333333333333,860.6666666666666,2768.1666666666665,129,0.67
2024-06-06 12:03:29.533,1839.2,928.8,3817.2,129,0.67
2024-06-06 12:03:29.728,1852.2,1556.8,3019.0,129,0.67
2024-06-06 12:03:30.029,2084.2,1240.4,3424.8,129,0.67
2024-06-06 12:03:30.179,1684.1666666666667,956.6666666666666,2914.3333333333335,129,0.67
2024-06-06 12:03:30.340,2069.6,1350.0,3178.6,129,0.67
2024-06-06 12:03:30.573,1895.6,1022.6,3575.6,129,0.67
2024-06-06 12:03:30.748,1447.5,1322.3333333333333,3418.6666666666665,129,0.67
2024-06-06 12:03:30.928,2662.4,1877.2,2946.2,129,0.67
2024-06-06 12:03:31.124,2159.6,1368.4,3816.2,129,0.67
2024-06-06 12:03:31.333,1592.0,1333.0,4487.0,129,0.67
2024-06-06 12:03:31.334,2147.25,1086.75,3856.0,129,0.67
2024-06-06 12:03:31.528,1386.0,1179.5,3516.1666666666665,129,0.67
2024-06-06 12:03:31.784,2166.0,1307.2,4118.2,129,0.67
2024-06-06 12:03:31.933,1269.4,2308.0,2401.6,129,0.67
2024-06-06 12:03:32.127,2269.0,1140.3333333333333,2434.6666666666665,129,0.67
2024-06-06 12:03:32.322,2282.4,1114.6,3730.4,129,0.67
2024-06-06 12:03:32.577,1792.6,920.2,3317.2,129,0.67
2024-06-06 12:03:32.818,2147.6666666666665,1363.0,3138.3333333333335,129,0.67
2024-06-06 12:03:32.923,2462.2,865.6,3059.4,129,0.67
2024-06-06 12:03:33.148,2315.8,1509.0,3899.2,129,0.67
2024-06-06 12:03:33.358,1790.3333333333333,1315.0,3540.0,129,0.67
2024-06-06 12:03:33.538,1615.4,1241.6,2510.2,129,0.67
2024-06-06 12:03:33.794,1277.6,2159.8,1105.8,129,0.67
2024-06-06 12:03:33.944,2914.2,1260.6,1559.0,129,0.67
2024-06-06 12:03:34.137,2708.3333333333335,-139.66666666666666,2834.1666666666665,129,0.67
2024-06-06 12:03:34.334,2147.6,1572.8,5046.6,129,0.67
2024-06-06 12:03:34.591,1482.0,1634.2,3941.2,129,0.67
2024-06-06 12:03:34.736,1313.3333333333333,398.8333333333333,3221.0,129,0.67
2024-06-06 12:03:34.948,2936.2,1603.2,3022.8,129,0.67
2024-06-06 12:03:35.128,1353.6,977.2,4212.4,129,0.67
2024-06-06 12:03:35.352,1859.5,1246.8333333333333,3414.3333333333335,129,0.67
2024-06-06 12:03:35.601,1870.8,726.0,3467.0,129,0.67
2024-06-06 12:03:35.727,2056.4,1560.0,3728.6,129,0.67
2024-06-06 12:03:35.949,1702.0,1437.0,3713.6666666666665,129,0.67
2024-06-06 12:03:36.131,1717.6,1554.6,3359.4,129,0.67
2024-06-06 12:03:36.343,2600.0,868.6,3797.4,129,0.67
2024-06-06 12:03:36.538,1907.8,1349.8,3609.6,129,0.67
2024-06-06 12:03:36.766,1949.1666666666667,1094.3333333333333,3766.8333333333335,129,0.67
2024-06-06 12:03:36.928,2065.8,1683.8,3889.2,129,0.67
2024-06-06 12:03:37.138,1414.6,1392.4,3261.4,129,0.67
2024-06-06 12:03:37.333,2434.3333333333335,1245.6666666666667,3528.5,129,0.67
2024-06-06 12:03:37.612,1711.8,1070.6,2852.4,129,0.67
2024-06-06 12:03:37.738,2420.0,907.4,3539.6,129,0.67
2024-06-06 12:03:37.932,1895.0,1042.5,3491.0,129,0.67
2024-06-06 12:03:38.212,1400.4,1140.4,3306.4,131,0.68
2024-06-06 12:03:38.337,1963.6,905.0,2568.8,131,0.68
2024-06-06 12:03:38.534,2286.8333333333335,637.1666666666666,3186.8333333333335,131,0.68
2024-06-06 12:03:38.728,2843.4,2054.6,4465.8,131,0.68
2024-06-06 12:03:38.936,2241.0,1497.8,4666.2,131,0.68
2024-06-06 12:03:39.178,2582.6,809.0,2799.4,131,0.68
2024-06-06 12:03:39.329,1809.5,1651.8333333333333,3210.0,131,0.68
2024-06-06 12:03:39.554,1843.4,343.2,3215.8,131,0.68
2024-06-06 12:03:39.735,1708.0,1482.4,3754.8,131,0.68
2024-06-06 12:03:39.928,1645.3333333333333,1429.6666666666667,2422.0,131,0.68
2024-06-06 12:03:40.220,1845.6,1016.0,3590.4,131,0.68
2024-06-06 12:03:40.332,2123.8,1004.4,2639.4,131,0.68
2024-06-06 12:03:40.529,1983.8,1315.6,3082.8,131,0.68
2024-06-06 12:03:40.726,1653.3333333333333,822.1666666666666,4382.666666666667,131,0.68
2024-06-06 12:03:40.963,2148.2,1202.4,3063.2,131,0.68
2024-06-06 12:03:41.128,1834.8,544.2,2788.8,131,0.68
2024-06-06 12:03:41.406,2375.6666666666665,1197.6666666666667,3442.8333333333335,131,0.68
2024-06-06 12:03:41.535,2084.2,1538.6,3573.4,131,0.68
2024-06-06 12:03:41.727,1916.8,660.8,2931.2,131,0.68
2024-06-06 12:03:42.011,1833.3333333333333,994.5,3096.3333333333335,131,0.68
2024-06-06 12:03:42.148,1762.2,992.4,2672.4,131,0.68
2024-06-06 12:03:42.342,1949.0,1371.6,4658.8,131,0.68
2024-06-06 12:03:42.524,1948.6,1367.0,3873.4,131,0.68
2024-06-06 12:03:42.748,2202.0,757.5,2945.1666666666665,131,0.68
2024-06-06 12:03:42.928,2119.8,1508.8,3278.2,131,0.68
2024-06-06 12:03:43.125,1676.4,1218.4,2806.0,131,0.68
2024-06-06 12:03:43.335,2873.8333333333335,1042.5,3675.3333333333335,131,0.68
2024-06-06 12:03:43.528,1606.0,1054.0,2567.8,131,0.68
2024-06-06 12:03:43.763,1959.4,1309.2,4603.0,131,0.68
2024-06-06 12:03:43.933,2448.3333333333335,559.8333333333334,2524.8333333333335,131,0.68
2024-06-06 12:03:44.127,1666.4,845.0,3654.4,131,0.68
2024-06-06 12:03:44.323,2597.4,1737.0,4613.4,131,0.68
2024-06-06 12:03:44.534,1530.3333333333333,1046.0,3471.6666666666665,131,0.68
2024-06-06 12:03:44.763,2011.6,1135.2,2686.2,131,0.68
2024-06-06 12:03:44.984,1990.6,1553.2,3793.0,131,0.68
2024-06-06 12:03:45.135,1932.2,1489.0,2781.2,131,0.68
2024-06-06 12:03:45.328,2065.1666666666665,882.5,2548.3333333333335,131,0.68
2024-06-06 12:03:45.539,1767.2,1687.4,3606.8,131,0.68
2024-06-06 12:03:45.810,2237.6,1317.6,3010.2,131,0.68
2024-06-06 12:03:45.941,1645.5,1058.8333333333333,3197.3333333333335,131,0.68
2024-06-06 12:03:46.138,2396.4,1365.8,3778.8,131,0.68
2024-06-06 12:03:46.345,1835.2,859.2,3159.4,131,0.68
2024-06-06 12:03:46.625,2105.3333333333335,1120.5,2716.6666666666665,131,0.68
2024-06-06 12:03:46.770,2279.0,838.4,3381.0,131,0.68
2024-06-06 12:03:46.950,2559.0,2054.0,4455.2,131,0.68
2024-06-06 12:03:47.144,1222.5,469.5,1375.0,131,0.68
2024-06-06 12:03:47.372,2388.4,1187.4,2828.6,131,0.68
2024-06-06 12:03:47.534,1885.6,1277.6,4254.6,131,0.68
2024-06-06 12:03:47.757,2087.4,979.8,2996.4,131,0.68
2024-06-06 12:03:47.937,2451.8333333333335,822.8333333333334,3516.0,131,0.68
2024-06-06 12:03:48.134,3268.4,2647.2,3763.4,131,0.68
2024-06-06 12:03:48.362,2112.0,1006.2,3509.6,131,0.68
2024-06-06 12:03:48.549,1697.8333333333333,1115.5,3300.0,131,0.68
2024-06-06 12:03:48.819,3709.0,1267.4,5643.8,131,0.68
2024-06-06 12:03:48.945,964.8,874.4,2251.0,131,0.68
2024-06-06 12:03:49.137,2796.6666666666665,186.66666666666666,2374.5,131,0.68
2024-06-06 12:03:49.395,1380.0,1009.6,4093.2,131,0.68
2024-06-06 12:03:49.544,2350.8,987.2,3430.8,131,0.68
2024-06-06 12:03:49.723,1709.6,1117.6,3366.2,131,0.68
2024-06-06 12:03:49.933,2058.3333333333335,845.5,3518.0,131,0.68
2024-06-06 12:03:50.128,2008.6,1153.4,3450.2,131,0.68
2024-06-06 12:03:50.340,2031.4,1120.6,3394.6,131,0.68
2024-06-06 12:03:50.563,2113.6666666666665,947.6666666666666,2834.0,131,0.68
2024-06-06 12:03:50.728,2356.0,824.0,3542.8,131,0.68
2024-06-06 12:03:50.938,2663.8,1233.4,3757.4,131,0.68
2024-06-06 12:03:51.218,1725.8,1429.6,3852.2,131,0.68
2024-06-06 12:03:51.329,2278.8333333333335,1198.0,3393.5,131,0.68
2024-06-06 12:03:51.554,1761.2,1363.6,2798.2,131,0.68
2024-06-06 12:03:51.750,1936.4,1050.2,4821.6,131,0.68
2024-06-06 12:03:52.027,2228.3333333333335,380.8333333333333,2419.5,131,0.68
2024-06-06 12:03:52.124,1831.4,1267.6,3059.0,131,0.68
2024-06-06 12:03:52.348,2146.6,1461.4,3221.8,131,0.68
2024-06-06 12:03:52.628,2391.5,1112.6666666666667,3630.3333333333335,131,0.68
2024-06-06 12:03:52.720,2056.8,996.4,3021.4,131,0.68
2024-06-06 12:03:52.948,1468.75,1255.0,3848.0,131,0.68
2024-06-06 12:03:52.949,2980.0,4213.0,7188.0,131,0.68
2024-06-06 12:03:53.127,2217.5,331.0,2267.6666666666665,131,0.68
2024-06-06 12:03:53.339,1833.2,1034.2,3982.6,131,0.68
2024-06-06 12:03:53.534,2537.6,713.2,4082.4,131,0.68
2024-06-06 12:03:53.789,1399.2,904.4,2462.8,131,0.68
2024-06-06 12:03:53.953,2032.8333333333333,1663.0,4403.833333333333,131,0.68
2024-06-06 12:03:54.133,1950.2,925.8,2522.4,131,0.68
2024-06-06 12:03:54.325,2498.8,1162.8,3421.6,131,0.68
2024-06-06 12:03:54.572,1954.3333333333333,1413.0,3198.1666666666665,131,0.68
2024-06-06 12:03:54.747,2266.6,1640.2,3182.8,131,0.68
2024-06-06 12:03:54.928,2194.6,606.4,2956.6,131,0.68
2024-06-06 12:03:55.134,2557.8333333333335,890.3333333333334,2897.6666666666665,131,0.68
2024-06-06 12:03:55.348,2025.6,672.4,3286.8,131,0.68
2024-06-06 12:03:55.544,2268.2,897.6,2604.4,131,0.68
2024-06-06 12:03:55.773,1467.5,1148.6666666666667,3917.3333333333335,131,0.68
2024-06-06 12:03:55.932,2228.8,1021.2,3295.4,131,0.68
2024-06-06 12:03:56.124,1827.6,221.0,3459.6,131,0.68
2024-06-06 12:03:56.384,2104.8,1133.4,3208.8,131,0.68
2024-06-06 12:03:56.532,1870.5,693.3333333333334,3774.3333333333335,131,0.68
2024-06-06 12:03:56.728,1276.0,1478.2,3655.2,131,0.68
2024-06-06 12:03:56.938,2451.0,408.6,3178.8,131,0.68
2024-06-06 12:03:57.150,1903.1666666666667,1800.5,4250.833333333333,131,0.68
2024-06-06 12:03:57.388,2481.8,948.6,2148.2,131,0.68
2024-06-06 12:03:57.538,1855.6,781.4,3167.2,131,0.68
2024-06-06 12:03:57.732,2024.8333333333333,5.0,2779.1666666666665,131,0.68
2024-06-06 12:03:57.942,1954.4,1342.4,4394.6,131,0.68
2024-06-06 12:03:58.137,2190.8,810.6,3600.2,133,0.7
2024-06-06 12:03:58.424,2197.1666666666665,981.0,3633.3333333333335,133,0.7
2024-06-06 12:03:58.532,1866.6,1093.8,3163.4,133,0.7
2024-06-06 12:03:58.739,2073.2,834.8,3575.8,133,0.7
2024-06-06 12:03:58.933,2429.4,1203.8,2857.8,133,0.7
2024-06-06 12:03:59.142,1892.6666666666667,992.3333333333334,4147.0,133,0.7
2024-06-06 12:03:59.337,1811.2,902.6,2996.0,133,0.7
2024-06-06 12:03:59.533,2180.4,1464.6,4431.4,133,0.7
2024-06-06 12:03:59.759,2197.5,847.0,2705.5,133,0.7
2024-06-06 12:03:59.983,1977.6,342.8,3997.0,133,0.7
2024-06-06 12:04:00.194,2244.2,669.0,3642.4,133,0.7
2024-06-06 12:04:00.330,1283.6,1849.0,3623.8,133,0.7
2024-06-06 12:04:00.526,2465.3333333333335,618.1666666666666,3354.0,133,0.7
2024-06-06 12:04:00.730,1862.4,1438.8,2607.6,133,0.7
2024-06-06 12:04:00.974,1864.0,1130.2,4097.8,133,0.7
2024-06-06 12:04:01.124,2117.6666666666665,802.1666666666666,3096.3333333333335,133,0.7
2024-06-06 12:04:01.330,2204.4,536.6,2995.2,133,0.7
2024-06-06 12:04:01.529,1687.8,1698.4,3358.8,133,0.7
2024-06-06 12:04:01.737,2012.8333333333333,1227.3333333333333,3505.0,133,0.7
2024-06-06 12:04:01.933,1588.8,1353.0,3572.8,133,0.7
2024-06-06 12:04:02.129,2941.4,1279.0,4211.8,133,0.7
2024-06-06 12:04:02.353,2262.6,588.2,3076.0,133,0.7
2024-06-06 12:04:02.532,1835.5,1004.8333333333334,3413.6666666666665,132,0.69
2024-06-06 12:04:02.728,1985.8,1134.6,3069.6,132,0.69
2024-06-06 12:04:02.923,2305.2,540.2,3201.2,132,0.69
2024-06-06 12:04:03.136,2375.1666666666665,805.8333333333334,3424.8333333333335,132,0.69
2024-06-06 12:04:03.328,1621.8,1053.2,3734.0,132,0.69
2024-06-06 12:04:03.588,2491.8,457.8,3308.8,132,0.69
2024-06-06 12:04:03.750,2401.1666666666665,775.3333333333334,3395.1666666666665,132,0.69
2024-06-06 12:04:04.035,2362.6,590.8,3415.6,132,0.69
2024-06-06 12:04:04.121,2265.0,1166.0,3379.8,132,0.69
2024-06-06 12:04:04.335,2077.1666666666665,731.1666666666666,3574.3333333333335,132,0.69
2024-06-06 12:04:04.588,2206.4,818.4,3368.6,132,0.69
2024-06-06 12:04:04.737,2341.0,726.4,3201.2,132,0.69
2024-06-06 12:04:04.934,2309.2,466.0,3286.8,132,0.69
2024-06-06 12:04:05.128,1993.3333333333333,909.0,3586.0,132,0.69
2024-06-06 12:04:05.407,2184.0,1204.4,3391.0,132,0.69
2024-06-06 12:04:05.532,2381.0,647.6,3402.2,132,0.69
2024-06-06 12:04:05.730,2070.6666666666665,678.6666666666666,3341.0,132,0.69
2024-06-06 12:04:05.938,2209.0,905.8,3123.6,132,0.69
2024-06-06 12:04:06.132,2093.8,918.0,3729.2,132,0.69
2024-06-06 12:04:06.410,2219.6666666666665,913.1666666666666,3324.6666666666665,132,0.69
2024-06-06 12:04:06.555,2169.4,652.0,3315.2,132,0.69
2024-06-06 12:04:06.749,2059.6,1106.6,3292.6,132,0.69
2024-06-06 12:04:06.927,2109.3333333333335,1008.3333333333334,3380.0,132,0.69
2024-06-06 12:04:07.155,1959.6,1033.6,3523.2,132,0.69
2024-06-06 12:04:07.419,2175.0,1034.2,3365.8,132,0.69
2024-06-06 12:04:07.544,2111.6,886.6,3464.6,129,0.67
2024-06-06 12:04:07.826,2423.1666666666665,812.6666666666666,3272.0,129,0.67
2024-06-06 12:04:07.936,1756.8,821.4,3582.8,129,0.67
2024-06-06 12:04:08.131,2227.8,1302.4,3511.6,129,0.67
2024-06-06 12:04:08.343,2224.0,652.6666666666666,3436.5,129,0.67
2024-06-06 12:04:08.534,2197.2,1027.2,3492.8,129,0.67
2024-06-06 12:04:08.745,2517.2,577.4,3166.8,129,0.67
2024-06-06 12:04:08.937,2383.1666666666665,797.8333333333334,3483.1666666666665,129,0.67
2024-06-06 12:04:09.134,2406.2,865.8,3077.6,129,0.67
2024-06-06 12:04:09.328,2390.6,767.0,3165.4,129,0.67
2024-06-06 12:04:09.552,2366.4,1284.4,3575.2,129,0.67
2024-06-06 12:04:09.735,2427.8333333333335,816.8333333333334,3307.1666666666665,129,0.67
2024-06-06 12:04:09.960,2002.8,913.6,3295.6,129,0.67
2024-06-06 12:04:10.139,2230.4,655.4,3073.0,129,0.67
2024-06-06 12:04:10.335,2003.6666666666667,808.0,3499.8333333333335,129,0.67
2024-06-06 12:04:10.542,2217.8,759.4,3229.6,129,0.67
2024-06-06 12:04:10.723,2210.2,886.6,3444.6,129,0.67
2024-06-06 12:04:10.944,2138.6,1199.6,3977.8,129,0.67
2024-06-06 12:04:11.220,1753.6666666666667,1113.3333333333333,3776.3333333333335,129,0.67
2024-06-06 12:04:11.395,1962.8,987.0,3470.4,129,0.67
2024-06-06 12:04:11.530,1742.2,1056.6,3219.4,129,0.67
2024-06-06 12:04:11.724,1483.5,1172.3333333333333,2905.3333333333335,129,0.67
2024-06-06 12:04:11.923,2016.4,1193.2,3876.4,129,0.67
2024-06-06 12:04:12.132,1964.0,691.6,2846.4,129,0.67
2024-06-06 12:04:12.329,1544.5,775.3333333333334,3903.5,129,0.67
2024-06-06 12:04:12.527,2098.8,1028.4,3662.0,129,0.67
2024-06-06 12:04:12.734,1995.6,820.4,3029.4,129,0.67
2024-06-06 12:04:12.930,2697.0,1361.1666666666667,3335.1666666666665,129,0.67
2024-06-06 12:04:13.125,2240.2,825.6,3235.2,129,0.67
2024-06-06 12:04:13.334,2216.2,863.6,3472.6,129,0.67
2024-06-06 12:04:13.573,2357.4,869.8,3388.4,129,0.67
2024-06-06 12:04:13.754,2009.0,1302.3333333333333,3712.3333333333335,129,0.67
2024-06-06 12:04:13.948,1846.8,1635.2,3490.2,129,0.67
2024-06-06 12:04:14.129,2084.0,615.0,3618.0,129,0.67
2024-06-06 12:04:14.337,1913.8333333333333,741.3333333333334,3817.8333333333335,129,0.67
2024-06-06 12:04:14.533,2290.0,660.2,3255.8,129,0.67
2024-06-06 12:04:14.796,2139.2,908.4,3550.0,129,0.67
2024-06-06 12:04:14.999,2442.1666666666665,928.0,3294.0,129,0.67
2024-06-06 12:04:15.195,2436.8,963.8,3196.0,128,0.67
2024-06-06 12:04:15.330,2290.2,1254.8,3536.6,128,0.67
2024-06-06 12:04:15.576,2550.8333333333335,1199.0,3092.5,128,0.67
2024-06-06 12:04:15.735,2539.4,964.2,3127.0,128,0.67
2024-06-06 12:04:15.958,2394.6,1115.2,3243.4,128,0.67
2024-06-06 12:04:16.154,2479.0,1176.4,3165.6,128,0.67
2024-06-06 12:04:16.332,2340.3333333333335,985.1666666666666,3191.5,128,0.67
2024-06-06 12:04:16.527,2163.2,1342.0,3220.4,128,0.67
2024-06-06 12:04:16.738,2298.4,993.8,3373.2,128,0.67
2024-06-06 12:04:16.951,2206.1666666666665,790.1666666666666,3324.1666666666665,128,0.67
2024-06-06 12:04:17.144,2170.6,779.0,3559.6,128,0.67
2024-06-06 12:04:17.339,1874.6,1230.0,3718.4,128,0.67
2024-06-06 12:04:17.549,2060.6666666666665,554.0,3374.1666666666665,128,0.67
2024-06-06 12:04:17.822,1500.6666666666667,356.3333333333333,3757.6666666666665,128,0.67
2024-06-06 12:04:17.823,2124.5,507.0,3375.5,128,0.67
2024-06-06 12:04:17.953,1677.6,517.2,3496.4,128,0.67
2024-06-06 12:04:18.150,2552.0,42.333333333333336,3413.8333333333335,128,0.67
2024-06-06 12:04:18.397,2463.8,362.6,3518.8,128,0.67
2024-06-06 12:04:18.569,2420.0,877.6,3254.8,128,0.67
2024-06-06 12:04:18.733,2253.4,900.2,3522.6,128,0.67
2024-06-06 12:04:19.012,2115.3333333333335,760.6666666666666,3419.5,128,0.67
2024-06-06 12:04:19.142,2033.6,1034.8,3517.6,128,0.67
2024-06-06 12:04:19.331,2076.8,956.6,3338.4,128,0.67
2024-06-06 12:04:19.605,2296.8333333333335,1426.5,3387.5,128,0.67
2024-06-06 12:04:19.737,344.8,1812.4,3383.8,128,0.67
2024-06-06 12:04:19.947,-57.0,3891.6,2523.2,128,0.67
2024-06-06 12:04:20.130,-81.6,3749.8,1166.0,128,0.67
2024-06-06 12:04:20.337,-117.16666666666667,3929.1666666666665,1721.5,128,0.67
2024-06-06 12:04:20.549,-474.0,3919.6,678.0,128,0.67
2024-06-06 12:04:20.731,-541.4,4203.2,319.2,128,0.67
2024-06-06 12:04:20.937,-1135.3333333333333,3839.6666666666665,746.0,128,0.67
2024-06-06 12:04:21.133,-782.8,3388.0,-634.6,128,0.67
2024-06-06 12:04:21.388,-544.0,4263.2,-1858.8,128,0.67
2024-06-06 12:04:21.539,-369.8333333333333,3611.1666666666665,-1860.3333333333333,128,0.67
2024-06-06 12:04:21.767,-687.8,4304.4,-1521.8,128,0.67
2024-06-06 12:04:21.930,-501.6,4364.2,-1377.8,128,0.67
2024-06-06 12:04:22.166,-714.6,3624.6,258.4,132,0.69
2024-06-06 12:04:22.378,-1783.5,4411.0,595.3333333333334,132,0.69
2024-06-06 12:04:22.529,-646.2,3221.8,-447.8,132,0.69
2024-06-06 12:04:22.738,-1180.2,3277.4,-422.4,132,0.69
2024-06-06 12:04:22.971,-59.0,3301.3333333333335,771.8333333333334,132,0.69
2024-06-06 12:04:23.129,-1484.6,3922.4,1790.4,132,0.69
2024-06-06 12:04:23.438,-1751.0,2702.2,3242.4,132,0.69
2024-06-06 12:04:23.531,-814.6666666666666,1402.5,3798.6666666666665,132,0.69
2024-06-06 12:04:23.827,-210.2,2335.2,3137.0,132,0.69
2024-06-06 12:04:23.938,-727.4,3460.0,2611.4,132,0.69
2024-06-06 12:04:24.211,-951.3333333333334,3544.5,2130.6666666666665,132,0.69
2024-06-06 12:04:24.343,-3053.0,1844.2,1855.4,132,0.69
2024-06-06 12:04:24.539,-658.0,442.6,3918.8,132,0.69
2024-06-06 12:04:24.768,2184.2,5463.4,1788.8,132,0.69
2024-06-06 12:04:24.930,646.6666666666666,3192.5,1450.6666666666667,132,0.69
2024-06-06 12:04:25.207,-933.0,3767.0,633.8,132,0.69
2024-06-06 12:04:25.349,-585.2,4020.6,778.2,132,0.69
2024-06-06 12:04:25.556,-861.1666666666666,3589.6666666666665,1003.0,132,0.69
2024-06-06 12:04:25.753,-377.6,3664.6,-391.6,132,0.69
2024-06-06 12:04:25.962,716.2,4900.8,-1138.6,132,0.69
2024-06-06 12:04:26.182,469.0,3748.1666666666665,-586.5,132,0.69
2024-06-06 12:04:26.347,527.8,4745.2,-635.0,132,0.69
2024-06-06 12:04:26.531,104.4,4224.4,-1006.2,132,0.69
2024-06-06 12:04:26.723,-93.83333333333333,4091.0,-720.3333333333334,132,0.69
2024-06-06 12:04:26.936,-500.6,3856.0,-623.0,132,0.69
2024-06-06 12:04:27.137,-621.0,4003.0,-398.6,132,0.69
2024-06-06 12:04:27.356,-690.0,4090.4,-460.8,132,0.69
2024-06-06 12:04:27.548,-704.3333333333334,4038.0,-403.0,132,0.69
2024-06-06 12:04:27.728,-577.0,4078.0,-321.0,132,0.69
2024-06-06 12:04:27.729,-560.5,4018.0,-50.25,132,0.69
2024-06-06 12:04:27.922,-594.2,4085.4,99.0,132,0.69
2024-06-06 12:04:28.149,-102.0,3791.1666666666665,57.666666666666664,132,0.69
2024-06-06 12:04:28.328,1315.4,5348.6,1532.6,132,0.69
2024-06-06 12:04:28.523,-355.6,2340.0,1054.8,132,0.69
2024-06-06 12:04:28.732,-976.1666666666666,3709.8333333333335,1141.8333333333333,132,0.69
2024-06-06 12:04:28.990,-860.2,3978.6,1152.4,132,0.69
2024-06-06 12:04:29.139,-893.0,3772.2,1271.6,132,0.69
2024-06-06 12:04:29.336,-955.6,3826.6,1429.4,132,0.69
2024-06-06 12:04:29.531,-857.5,3731.5,1493.1666666666667,132,0.69
2024-06-06 12:04:29.727,-720.6,3631.6,1516.2,132,0.69
2024-06-06 12:04:30.003,288.4,2996.2,2047.6,132,0.69
2024-06-06 12:04:30.131,824.6666666666666,4283.0,2075.6666666666665,132,0.69
2024-06-06 12:04:30.342,1216.2,3209.4,2163.6,132,0.69
2024-06-06 12:04:30.523,540.4,3573.2,1711.8,132,0.69
2024-06-06 12:04:30.732,804.2,3578.4,2399.0,132,0.69
2024-06-06 12:04:30.941,1023.3333333333334,3382.3333333333335,2307.0,132,0.69
2024-06-06 12:04:31.168,844.8,3326.2,2149.6,132,0.69
2024-06-06 12:04:31.328,985.0,3241.6,3005.4,132,0.69
2024-06-06 12:04:31.540,-281.1666666666667,2450.5,3453.5,132,0.69
2024-06-06 12:04:31.785,-391.6,2186.8,2897.0,132,0.69
2024-06-06 12:04:31.930,489.6,2689.4,3324.2,132,0.69
2024-06-06 12:04:32.141,498.0,2269.75,3715.25,132,0.69
2024-06-06 12:04:32.142,583.0,2338.5,3299.5,132,0.69
2024-06-06 12:04:32.352,647.6,2252.6,3487.6,132,0.69
2024-06-06 12:04:32.529,465.2,2306.2,3433.2,132,0.69
2024-06-06 12:04:32.810,1024.5,1900.3333333333333,3519.1666666666665,132,0.69
2024-06-06 12:04:32.937,899.4,1869.0,3432.0,132,0.69
2024-06-06 12:04:33.132,1020.2,1666.2,3668.0,132,0.69
2024-06-06 12:04:33.342,885.8,1687.0,4049.0,132,0.69
2024-06-06 12:04:33.620,853.5,1977.5,3336.0,132,0.69
2024-06-06 12:04:33.747,470.6,2586.2,2560.4,132,0.69
2024-06-06 12:04:33.927,-429.4,2603.0,3823.6,132,0.69
2024-06-06 12:04:34.139,145.33333333333334,2812.0,3275.1666666666665,132,0.69
2024-06-06 12:04:34.375,44.0,1945.8,3692.0,132,0.69
2024-06-06 12:04:34.527,1366.4,1582.4,2945.0,132,0.69
2024-06-06 12:04:34.736,2056.3333333333335,2165.1666666666665,2458.1666666666665,132,0.69
2024-06-06 12:04:34.932,2628.4,2596.2,1803.2,132,0.69
2024-06-06 12:04:35.142,3031.6,2682.6,2884.0,132,0.69
2024-06-06 12:04:35.352,3100.8333333333335,1700.3333333333333,1894.6666666666667,132,0.69
2024-06-06 12:04:35.547,3356.6,992.8,1747.8,132,0.69
2024-06-06 12:04:35.742,3648.2,478.4,2228.2,132,0.69
2024-06-06 12:04:35.953,3222.2,683.8,2341.0,132,0.69
2024-06-06 12:04:36.132,3633.5,687.3333333333334,2179.1666666666665,132,0.69
2024-06-06 12:04:36.343,3540.2,614.8,1950.4,132,0.69
2024-06-06 12:04:36.537,3221.0,1075.0,1744.2,132,0.69
2024-06-06 12:04:36.748,3063.3333333333335,1852.3333333333333,2303.5,132,0.69
2024-06-06 12:04:36.957,3134.6,1632.6,2202.8,132,0.69
2024-06-06 12:04:37.230,3460.6,1051.8,1643.0,132,0.69
2024-06-06 12:04:37.332,3006.3333333333335,1533.8333333333333,2512.6666666666665,132,0.69
2024-06-06 12:04:37.557,3456.6,1508.4,3123.0,129,0.67
2024-06-06 12:04:37.834,3660.4,1191.6,2168.8,129,0.67
2024-06-06 12:04:37.932,2503.8333333333335,1123.3333333333333,2325.6666666666665,129,0.67
2024-06-06 12:04:38.127,2667.6,1504.6,3131.0,129,0.67
2024-06-06 12:04:38.353,3396.0,861.6,1325.6,129,0.67
2024-06-06 12:04:38.547,2270.0,458.0,973.0,129,0.67
2024-06-06 12:04:38.548,2648.25,1195.25,1915.25,129,0.67
2024-06-06 12:04:38.826,3360.8333333333335,1756.6666666666667,2952.5,129,0.67
2024-06-06 12:04:38.954,3072.2,1347.4,1522.8,129,0.67
2024-06-06 12:04:39.161,1609.2,1413.0,3903.4,129,0.67
2024-06-06 12:04:39.387,3319.8333333333335,1319.0,2051.3333333333335,129,0.67
2024-06-06 12:04:39.535,2218.2,1602.6,2389.2,129,0.67
2024-06-06 12:04:39.824,3748.2,1340.8,3025.6,129,0.67
2024-06-06 12:04:39.973,2717.6,1424.4,1846.4,129,0.67
2024-06-06 12:04:40.126,2332.6666666666665,1334.8333333333333,2984.0,129,0.67
2024-06-06 12:04:40.329,2710.6,996.8,1237.4,129,0.67
2024-06-06 12:04:40.612,3569.2,1781.8,3073.8,129,0.67
2024-06-06 12:04:40.720,2939.0,1597.8333333333333,1786.5,129,0.67
2024-06-06 12:04:40.935,2527.6,1413.2,3573.4,129,0.67
2024-06-06 12:04:41.124,3318.0,1755.6,2468.2,129,0.67
2024-06-06 12:04:41.338,2248.8333333333335,2030.3333333333333,2758.0,129,0.67
2024-06-06 12:04:41.545,1535.4,1871.4,2605.4,129,0.67
2024-06-06 12:04:41.725,2177.8,770.4,2440.2,129,0.67
2024-06-06 12:04:41.994,2033.0,1296.6,3427.0,129,0.67
2024-06-06 12:04:42.133,1577.0,1637.8333333333333,3836.6666666666665,129,0.67
2024-06-06 12:04:42.330,1747.4,1632.2,3393.0,129,0.67
2024-06-06 12:04:42.535,1799.8,509.4,3469.6,129,0.67
2024-06-06 12:04:42.732,2482.8333333333335,1170.0,3248.0,129,0.67
2024-06-06 12:04:42.971,1831.2,1130.2,3671.6,129,0.67
2024-06-06 12:04:43.138,2112.4,844.2,3712.8,129,0.67
2024-06-06 12:04:43.335,1720.6666666666667,929.6666666666666,3800.3333333333335,129,0.67
2024-06-06 12:04:43.526,2315.2,705.6,2907.2,129,0.67
2024-06-06 12:04:43.722,1614.8,977.2,3936.4,129,0.67
2024-06-06 12:04:43.930,2261.1666666666665,1049.0,3521.1666666666665,129,0.67
2024-06-06 12:04:44.128,2042.0,1061.2,3308.2,130,0.68
2024-06-06 12:04:44.340,2261.2,892.4,3112.4,130,0.68
2024-06-06 12:04:44.530,1677.2,937.2,3700.2,130,0.68
2024-06-06 12:04:44.786,2445.1666666666665,612.6666666666666,3459.5,130,0.68
2024-06-06 12:04:44.940,2569.2,969.8,3602.4,130,0.68
2024-06-06 12:04:45.164,2778.2,436.8,3098.4,130,0.68
2024-06-06 12:04:45.328,1788.6666666666667,495.1666666666667,3827.5,130,0.68
2024-06-06 12:04:45.539,2043.6,315.4,3303.8,130,0.68
2024-06-06 12:04:45.745,2150.8,831.0,3574.8,130,0.68
2024-06-06 12:04:45.945,2425.1666666666665,672.5,3197.0,130,0.68
2024-06-06 12:04:46.138,1682.4,1792.2,4552.2,130,0.68
2024-06-06 12:04:46.333,2474.4,-180.2,3246.2,130,0.68
2024-06-06 12:04:46.528,2227.1666666666665,985.3333333333334,3866.5,130,0.68
2024-06-06 12:04:46.735,2079.2,407.2,3597.8,130,0.68
2024-06-06 12:04:46.937,2276.8,961.0,3235.6,130,0.68
2024-06-06 12:04:47.127,2218.4,1010.4,3388.0,130,0.68
2024-06-06 12:04:47.338,2106.5,754.5,3482.1666666666665,130,0.68
2024-06-06 12:04:47.534,2309.4,738.6,3573.4,130,0.68
2024-06-06 12:04:47.838,2214.6,681.0,3187.2,130,0.68
2024-06-06 12:04:47.953,2261.0,910.0,3650.0,130,0.68
2024-06-06 12:04:48.130,2208.0,462.0,3105.0,131,0.68
2024-06-06 12:04:48.345,2151.6,642.4,3231.8,131,0.68
2024-06-06 12:04:48.552,2316.5,547.3333333333334,3426.5,131,0.68
2024-06-06 12:04:48.747,2602.4,762.0,3393.4,131,0.68
2024-06-06 12:04:48.944,2325.2,481.6,3295.8,131,0.68
2024-06-06 12:04:49.137,2403.6,663.0,3484.8,131,0.68
2024-06-06 12:04:49.349,2400.8333333333335,797.8333333333334,3366.3333333333335,131,0.68
2024-06-06 12:04:49.545,2140.8,627.4,3433.6,131,0.68
2024-06-06 12:04:49.772,2359.6,479.2,3195.2,131,0.68
2024-06-06 12:04:49.933,2106.8333333333335,743.3333333333334,3566.5,131,0.68
2024-06-06 12:04:50.175,2324.0,874.6,3433.6,131,0.68
2024-06-06 12:04:50.368,1943.2,791.2,3426.0,131,0.68
2024-06-06 12:04:50.530,2249.6,642.2,3354.6,131,0.68
2024-06-06 12:04:50.725,2631.6666666666665,468.5,3140.3333333333335,131,0.68
2024-06-06 12:04:50.923,2380.8,779.2,3485.0,131,0.68
2024-06-06 12:04:51.179,2436.2,1063.4,3336.6,131,0.68
2024-06-06 12:04:51.331,2274.5,976.6666666666666,3335.0,131,0.68
2024-06-06 12:04:51.608,2154.4,1233.0,3361.8,132,0.69
2024-06-06 12:04:51.735,2268.6,1245.2,3243.4,132,0.69
2024-06-06 12:04:51.929,1921.6666666666667,1211.3333333333333,3515.8333333333335,132,0.69
2024-06-06 12:04:52.207,1982.4,1407.4,3241.6,132,0.69
2024-06-06 12:04:52.334,2179.8,1160.0,3384.4,132,0.69
2024-06-06 12:04:52.528,1631.0,1326.1666666666667,3589.5,132,0.69
2024-06-06 12:04:52.739,2605.2,342.2,2723.4,132,0.69
2024-06-06 12:04:52.965,2594.4,1184.8,3405.6,132,0.69
2024-06-06 12:04:53.173,2209.8,2047.0,3762.8,132,0.69
2024-06-06 12:04:53.338,1510.1666666666667,2399.6666666666665,3601.3333333333335,132,0.69
2024-06-06 12:04:53.534,4951.0,3102.2,1158.8,132,0.69
2024-06-06 12:04:53.728,34.6,2622.8,3853.0,132,0.69
2024-06-06 12:04:53.953,1542.0,1352.0,3710.6666666666665,132,0.69
2024-06-06 12:04:54.134,1656.6,909.6,3342.0,132,0.69
2024-06-06 12:04:54.329,1489.2,486.0,4243.2,132,0.69
2024-06-06 12:04:54.538,1808.6666666666667,454.1666666666667,3660.8333333333335,132,0.69
2024-06-06 12:04:54.733,1590.0,274.6,3653.8,132,0.69
2024-06-06 12:04:55.014,1820.2,468.2,3549.8,132,0.69
2024-06-06 12:04:55.137,2064.5,282.5,3627.8333333333335,132,0.69
2024-06-06 12:04:55.416,2398.2,169.0,3062.0,132,0.69
2024-06-06 12:04:55.543,2821.2,818.4,2875.0,132,0.69
2024-06-06 12:04:55.751,2568.2,1682.0,3404.0,132,0.69
2024-06-06 12:04:55.934,2045.1666666666667,2349.1666666666665,3219.3333333333335,132,0.69
2024-06-06 12:04:56.128,1787.2,2189.4,3378.8,132,0.69
2024-06-06 12:04:56.340,1942.0,1196.6,3317.8,132,0.69
2024-06-06 12:04:56.534,2173.8333333333335,589.6666666666666,3456.8333333333335,132,0.69
2024-06-06 12:04:56.788,2177.2,64.8,3421.8,132,0.69
2024-06-06 12:04:56.940,2118.0,546.4,3388.4,132,0.69
2024-06-06 12:04:57.136,2586.1666666666665,426.8333333333333,3158.8333333333335,132,0.69
2024-06-06 12:04:57.345,2119.4,1199.6,3661.2,132,0.69
2024-06-06 12:04:57.536,1950.4,1401.0,3933.0,132,0.69
2024-06-06 12:04:57.795,2497.6666666666665,730.8333333333334,3343.0,132,0.69
2024-06-06 12:04:57.927,2804.2,193.4,3167.4,132,0.69
2024-06-06 12:04:58.141,2171.4,168.6,3410.8,132,0.69
2024-06-06 12:04:58.333,2220.0,537.4,3558.2,132,0.69
2024-06-06 12:04:58.530,2109.6666666666665,725.1666666666666,3721.6666666666665,132,0.69
2024-06-06 12:04:58.818,2278.0,540.4,3355.4,132,0.69
2024-06-06 12:04:58.935,1962.8,345.2,3597.0,132,0.69
2024-06-06 12:04:59.211,1896.6666666666667,624.5,3650.3333333333335,132,0.69
2024-06-06 12:04:59.355,1861.4,727.8,3565.2,132,0.69
2024-06-06 12:04:59.530,2014.0,843.6,3708.8,132,0.69
2024-06-06 12:04:59.728,1651.2,467.8,3448.8,132,0.69
2024-06-06 12:04:59.936,1607.5,1024.0,3759.6666666666665,132,0.69
2024-06-06 12:05:00.150,1483.8,905.4,3910.8,132,0.69
2024-06-06 12:05:00.331,1545.4,841.2,3614.6,132,0.69
2024-06-06 12:05:00.605,1406.3333333333333,1955.6666666666667,3584.1666666666665,132,0.69
2024-06-06 12:05:00.750,1599.8,788.2,3401.8,132,0.69
2024-06-06 12:05:00.929,2299.4,2289.2,3515.8,132,0.69
2024-06-06 12:05:01.137,1428.6666666666667,2821.5,2879.6666666666665,132,0.69
2024-06-06 12:05:01.329,-364.2,2742.2,3736.2,132,0.69
2024-06-06 12:05:01.531,121.4,3471.8,2214.0,133,0.7
2024-06-06 12:05:01.720,48.0,3715.0,1205.4,133,0.7
2024-06-06 12:05:01.934,-215.0,2643.8333333333335,2910.8333333333335,133,0.7
2024-06-06 12:05:02.123,224.0,3088.0,2706.0,133,0.7
2024-06-06 12:05:02.318,77.0,3616.2,2379.0,133,0.7
2024-06-06 12:05:02.573,150.5,3474.6666666666665,2200.5,133,0.7
2024-06-06 12:05:02.729,80.6,3432.2,1829.8,133,0.7
2024-06-06 12:05:03.002,-588.4,4650.2,407.2,133,0.7
2024-06-06 12:05:03.145,-497.8333333333333,3544.6666666666665,-1033.1666666666667,133,0.7
2024-06-06 12:05:03.342,-1504.6,3209.4,-2290.2,133,0.7
2024-06-06 12:05:03.534,-1365.4,3723.6,-1342.6,133,0.7
2024-06-06 12:05:03.728,-1212.8333333333333,3583.5,-1487.8333333333333,133,0.7
2024-06-06 12:05:03.968,-1127.4,3849.8,-1336.0,133,0.7
2024-06-06 12:05:04.133,-1123.4,3694.8,-1277.6,133,0.7
2024-06-06 12:05:04.330,-1203.0,3625.0,-1272.0,133,0.7
2024-06-06 12:05:04.331,-1282.25,3667.25,-1196.25,133,0.7
2024-06-06 12:05:04.523,-1316.6666666666667,3701.1666666666665,-1171.5,133,0.7
2024-06-06 12:05:04.737,-1384.6,3675.4,-1255.8,133,0.7
2024-06-06 12:05:04.972,-1430.8,3718.4,-1285.8,133,0.7
2024-06-06 12:05:05.142,-1502.6666666666667,3648.8333333333335,-1253.0,133,0.7
2024-06-06 12:05:05.335,-1494.4,3560.8,-1297.4,133,0.7
2024-06-06 12:05:05.528,-1498.6,3696.4,-1306.8,133,0.7
2024-06-06 12:05:05.738,-1562.0,3644.1666666666665,-1048.6666666666667,133,0.7
2024-06-06 12:05:05.994,-1488.2,3627.4,-998.4,133,0.7
2024-06-06 12:05:06.128,-1404.6,3567.8,-1250.8,133,0.7
2024-06-06 12:05:06.323,-1567.8333333333333,3986.1666666666665,-924.6666666666666,133,0.7
2024-06-06 12:05:06.537,-1221.6,3508.4,-1705.6,133,0.7
2024-06-06 12:05:06.732,-1385.2,3604.4,-1363.2,133,0.7
2024-06-06 12:05:06.941,-1415.8,3755.0,-523.2,133,0.7
2024-06-06 12:05:07.136,-1424.0,3559.3333333333335,-769.1666666666666,133,0.7
