dateTime,BandAccX,BandAccY,BandAccZ,rate,rateZone
2024-06-06 11:48:12.529,-1755.4,3500.2,-1207.0,80,0.42
2024-06-06 11:48:12.709,-1781.8,3567.8,-1245.2,80,0.42
2024-06-06 11:48:12.905,-1778.4,3496.2,-1227.6,80,0.42
2024-06-06 11:48:13.099,-1790.6,3504.6,-1205.8,80,0.42
2024-06-06 11:48:13.318,-1744.0,3488.1666666666665,-994.6666666666666,80,0.42
2024-06-06 11:48:13.519,-1908.6,3417.8,-1106.2,80,0.42
2024-06-06 11:48:13.715,-1841.6,3790.4,-717.2,80,0.42
2024-06-06 11:48:13.910,-1124.1666666666667,3430.1666666666665,14.166666666666666,80,0.42
2024-06-06 11:48:14.106,3718.2,2418.8,682.2,80,0.42
2024-06-06 11:48:14.331,5865.0,2649.8,-845.6,80,0.42
2024-06-06 11:48:14.529,2798.3333333333335,3731.3333333333335,-350.6666666666667,80,0.42
2024-06-06 11:48:14.704,4055.2,7045.4,792.2,80,0.42
2024-06-06 11:48:14.914,1926.0,2639.4,1612.6,80,0.42
2024-06-06 11:48:15.125,-2267.5,-887.0,1429.6666666666667,80,0.42
2024-06-06 11:48:15.364,-3345.0,-1113.2,1877.4,80,0.42
2024-06-06 11:48:15.515,-3071.4,-1806.0,1546.2,80,0.42
2024-06-06 11:48:15.710,-3901.6,-1494.4,2177.2,80,0.42
2024-06-06 11:48:15.919,-3553.8333333333335,-526.5,1069.5,80,0.42
2024-06-06 11:48:16.153,-3527.0,-540.6,971.0,80,0.42
2024-06-06 11:48:16.325,-3565.6,643.0,1354.0,80,0.42
2024-06-06 11:48:16.535,-761.8333333333334,2625.6666666666665,2509.1666666666665,82,0.43
2024-06-06 11:48:16.715,2726.2,3016.2,2501.0,82,0.43
2024-06-06 11:48:16.910,2929.6,4054.0,1921.0,82,0.43
2024-06-06 11:48:17.120,2469.6666666666665,4691.5,1606.8333333333333,82,0.43
2024-06-06 11:48:17.317,982.6,3391.4,368.6,82,0.43
2024-06-06 11:48:17.529,-274.4,3426.6,366.8,82,0.43
2024-06-06 11:48:17.722,-490.8333333333333,4602.166666666667,396.3333333333333,82,0.43
2024-06-06 11:48:17.916,-132.6,3817.6,163.0,82,0.43
2024-06-06 11:48:18.124,-814.8,3868.6,674.8,82,0.43
2024-06-06 11:48:18.320,-1058.6,4522.0,664.6,82,0.43
2024-06-06 11:48:18.514,-923.0,3700.8333333333335,134.5,82,0.43
2024-06-06 11:48:18.725,-1482.0,3661.6,474.4,82,0.43
2024-06-06 11:48:18.935,-1017.6,4571.4,580.6,82,0.43
2024-06-06 11:48:19.116,-641.5,3668.0,492.8333333333333,82,0.43
2024-06-06 11:48:19.307,-1185.0,3763.8,863.8,82,0.43
2024-06-06 11:48:19.506,-1558.2,4351.6,446.0,82,0.43
2024-06-06 11:48:19.715,-1272.6666666666667,3634.5,-454.5,82,0.43
2024-06-06 11:48:19.915,-1603.8,3483.4,121.2,82,0.43
2024-06-06 11:48:20.107,-1320.8,4522.4,203.6,82,0.43
2024-06-06 11:48:20.330,-730.6,3839.8,-11.8,82,0.43
2024-06-06 11:48:20.557,-988.6666666666666,3739.8333333333335,639.8333333333334,82,0.43
2024-06-06 11:48:20.705,-1576.6,4432.8,216.6,82,0.43
2024-06-06 11:48:20.915,-1218.8,3853.4,-135.6,82,0.43
2024-06-06 11:48:21.126,-1098.1666666666667,3416.6666666666665,490.1666666666667,82,0.43
2024-06-06 11:48:21.304,727.8,3458.6,655.4,82,0.43
2024-06-06 11:48:21.516,4761.8,2065.0,-7.4,82,0.43
2024-06-06 11:48:21.717,4592.6,2939.2,-224.0,82,0.43
2024-06-06 11:48:21.906,4526.166666666667,3024.3333333333335,303.0,82,0.43
2024-06-06 11:48:22.107,5103.4,1466.6,146.0,89,0.46
2024-06-06 11:48:22.312,3195.4,1088.0,-135.6,89,0.46
2024-06-06 11:48:22.520,4479.166666666667,1613.6666666666667,294.5,89,0.46
2024-06-06 11:48:22.735,3855.2,2096.6,542.4,89,0.46
2024-06-06 11:48:22.933,3881.4,2517.8,457.4,89,0.46
2024-06-06 11:48:23.107,5051.166666666667,2317.3333333333335,468.6666666666667,89,0.46
2024-06-06 11:48:23.316,3710.2,1133.6,75.8,89,0.46
2024-06-06 11:48:23.529,3432.8,1121.0,65.2,89,0.46
2024-06-06 11:48:23.721,4714.5,1774.5,530.3333333333334,89,0.46
2024-06-06 11:48:23.982,3091.0,2018.2,300.0,89,0.46
2024-06-06 11:48:24.124,4499.0,2600.2,624.4,89,0.46
2024-06-06 11:48:24.370,4404.0,1682.3333333333333,453.1666666666667,89,0.46
2024-06-06 11:48:24.516,3229.4,1092.2,65.0,89,0.46
2024-06-06 11:48:24.713,4426.0,1590.8,34.2,89,0.46
2024-06-06 11:48:24.907,3663.0,1689.6,743.8,89,0.46
2024-06-06 11:48:25.115,3680.1666666666665,2248.5,911.0,89,0.46
2024-06-06 11:48:25.310,5367.4,5739.4,1925.4,89,0.46
2024-06-06 11:48:25.524,4087.6,3287.6,335.2,89,0.46
2024-06-06 11:48:25.699,590.5,-45.166666666666664,192.66666666666666,89,0.46
2024-06-06 11:48:25.911,3479.2,3321.0,2261.6,89,0.46
2024-06-06 11:48:26.105,5510.4,3867.8,908.2,89,0.46
2024-06-06 11:48:26.318,4428.833333333333,3503.0,598.5,89,0.46
2024-06-06 11:48:26.510,5519.8,2120.2,181.4,89,0.46
2024-06-06 11:48:26.704,3700.8,1029.0,-110.0,89,0.46
2024-06-06 11:48:26.930,3701.0,1297.1666666666667,200.16666666666666,89,0.46
2024-06-06 11:48:27.161,4909.2,2143.0,607.6,89,0.46
2024-06-06 11:48:27.321,3844.4,2386.6,338.8,89,0.46
2024-06-06 11:48:27.515,4652.0,2698.4,470.8,89,0.46
2024-06-06 11:48:27.710,4147.166666666667,1344.1666666666667,103.66666666666667,89,0.46
2024-06-06 11:48:27.907,3696.0,1069.6,-90.6,89,0.46
2024-06-06 11:48:28.117,4837.8,1284.2,312.8,93,0.48
2024-06-06 11:48:28.325,3267.0,1872.1666666666667,541.0,93,0.48
2024-06-06 11:48:28.557,4453.2,2678.6,682.6,93,0.48
2024-06-06 11:48:28.718,4926.0,2007.6,190.4,93,0.48
2024-06-06 11:48:28.914,3623.0,1111.0,-190.33333333333334,93,0.48
2024-06-06 11:48:29.120,4622.0,1082.6,164.2,93,0.48
2024-06-06 11:48:29.317,3653.0,1595.8,486.2,93,0.48
2024-06-06 11:48:29.555,4277.2,2615.2,603.4,93,0.48
2024-06-06 11:48:29.722,4905.833333333333,2568.0,316.1666666666667,93,0.48
2024-06-06 11:48:29.918,4109.2,1235.6,-84.6,93,0.48
2024-06-06 11:48:30.127,3482.8,1143.2,57.4,93,0.48
2024-06-06 11:48:30.303,4609.333333333333,1567.6666666666667,561.5,93,0.48
2024-06-06 11:48:30.515,3042.0,1967.0,422.3333333333333,93,0.48
2024-06-06 11:48:30.516,3956.5,2166.5,219.0,93,0.48
2024-06-06 11:48:30.710,4607.8,2690.4,502.0,93,0.48
2024-06-06 11:48:30.905,4350.0,1714.4,32.0,93,0.48
2024-06-06 11:48:31.115,3918.3333333333335,914.1666666666666,-229.83333333333334,93,0.48
2024-06-06 11:48:31.330,4943.6,1227.6,-89.2,93,0.48
2024-06-06 11:48:31.502,2839.4,1511.6,391.2,93,0.48
2024-06-06 11:48:31.713,4472.166666666667,2435.1666666666665,515.3333333333334,93,0.48
2024-06-06 11:48:31.912,4819.2,574.8,-439.6,93,0.48
2024-06-06 11:48:32.119,2795.2,1930.2,922.6,93,0.48
2024-06-06 11:48:32.388,5505.0,3071.5,-19.5,93,0.48
2024-06-06 11:48:32.509,3371.4,2397.6,994.4,96,0.5
2024-06-06 11:48:32.707,301.2,1048.6,872.8,96,0.5
2024-06-06 11:48:32.915,547.0,599.5,1568.5,96,0.5
2024-06-06 11:48:32.916,1566.75,3699.0,4226.0,96,0.5
2024-06-06 11:48:33.109,3914.0,2593.8,19.6,96,0.5
2024-06-06 11:48:33.305,2794.2,1711.8,456.6,96,0.5
2024-06-06 11:48:33.514,3758.8,2730.0,69.2,96,0.5
2024-06-06 11:48:33.713,5926.166666666667,1574.0,-728.0,96,0.5
2024-06-06 11:48:33.924,2715.2,2231.6,77.0,96,0.5
2024-06-06 11:48:34.119,597.8,817.0,463.6,96,0.5
2024-06-06 11:48:34.311,2442.1666666666665,3423.0,4498.166666666667,96,0.5
2024-06-06 11:48:34.506,4072.0,2814.6,115.4,96,0.5
2024-06-06 11:48:34.767,1612.6,1267.8,924.2,96,0.5
2024-06-06 11:48:34.914,6322.166666666667,3461.3333333333335,314.1666666666667,96,0.5
2024-06-06 11:48:35.194,3739.8,845.4,-238.2,96,0.5
2024-06-06 11:48:35.318,1924.0,1213.4,1343.8,96,0.5
2024-06-06 11:48:35.517,29.5,1370.0,2007.0,96,0.5
2024-06-06 11:48:35.709,2342.0,2574.8,3091.2,96,0.5
2024-06-06 11:48:35.916,4498.8,3115.2,-428.2,96,0.5
2024-06-06 11:48:36.112,2302.6,1092.2,467.8,96,0.5
2024-06-06 11:48:36.306,5627.833333333333,3125.3333333333335,-643.3333333333334,96,0.5
2024-06-06 11:48:36.518,4388.6,1208.2,-102.2,96,0.5
2024-06-06 11:48:36.714,3118.6,2136.6,227.8,96,0.5
2024-06-06 11:48:36.970,138.16666666666666,597.6666666666666,435.1666666666667,96,0.5
2024-06-06 11:48:37.113,1501.2,3004.8,4838.8,96,0.5
2024-06-06 11:48:37.312,4359.6,2782.4,-392.6,96,0.5
2024-06-06 11:48:37.524,2338.3333333333335,1500.1666666666667,728.3333333333334,91,0.47
2024-06-06 11:48:37.716,7030.0,1863.4,-235.8,91,0.47
2024-06-06 11:48:37.975,4119.8,-253.0,-720.8,91,0.47
2024-06-06 11:48:38.121,2996.8333333333335,-517.1666666666666,-96.5,91,0.47
2024-06-06 11:48:38.319,2360.0,582.4,563.6,91,0.47
2024-06-06 11:48:38.596,4310.2,2307.6,994.4,91,0.47
2024-06-06 11:48:38.752,5036.2,2379.8,465.0,91,0.47
2024-06-06 11:48:38.916,3880.6666666666665,1126.0,-12.833333333333334,91,0.47
2024-06-06 11:48:39.129,4387.2,1050.8,51.4,91,0.47
2024-06-06 11:48:39.310,4405.8,1316.6,596.6,91,0.47
2024-06-06 11:48:39.519,3589.5,2235.5,447.3333333333333,91,0.47
2024-06-06 11:48:39.714,4617.4,2958.0,589.4,91,0.47
2024-06-06 11:48:39.936,4681.4,1460.8,137.0,91,0.47
2024-06-06 11:48:40.115,3367.8,1033.6,-202.2,91,0.47
2024-06-06 11:48:40.317,4498.166666666667,3414.0,1255.5,91,0.47
2024-06-06 11:48:40.522,296.6,2637.0,1963.2,91,0.47
2024-06-06 11:48:40.718,2783.0,4822.0,6013.8,91,0.47
2024-06-06 11:48:40.913,2486.8333333333335,1240.5,-717.1666666666666,91,0.47
2024-06-06 11:48:41.106,3637.2,2195.0,-352.4,91,0.47
2024-06-06 11:48:41.315,5127.2,2237.6,-219.0,91,0.47
2024-06-06 11:48:41.514,4748.0,1380.5,-1139.8333333333333,91,0.47
2024-06-06 11:48:41.790,2516.0,1295.4,512.8,91,0.47
2024-06-06 11:48:41.931,3.4,853.8,937.6,91,0.47
2024-06-06 11:48:42.129,3271.8,2989.4,2913.8,91,0.47
2024-06-06 11:48:42.403,4188.833333333333,2856.8333333333335,-643.1666666666666,91,0.47
2024-06-06 11:48:42.545,1450.2,1778.8,1233.0,91,0.47
2024-06-06 11:48:42.764,6712.8,3462.2,15.6,91,0.47
2024-06-06 11:48:42.919,3638.5,627.0,-353.0,91,0.47
2024-06-06 11:48:43.116,2708.6,196.4,-70.8,91,0.47
2024-06-06 11:48:43.381,2560.0,1187.6,438.6,91,0.47
2024-06-06 11:48:43.510,4196.166666666667,2295.0,932.3333333333334,91,0.47
2024-06-06 11:48:43.777,5064.2,1790.6,551.6,91,0.47
2024-06-06 11:48:43.913,3587.6,922.0,327.4,91,0.47
2024-06-06 11:48:44.110,3684.5,1269.5,383.0,91,0.47
2024-06-06 11:48:44.320,4691.8,2031.4,782.6,91,0.47
2024-06-06 11:48:44.517,3122.2,1977.2,668.4,91,0.47
2024-06-06 11:48:44.794,3849.2,2154.4,702.4,91,0.47
2024-06-06 11:48:44.921,4899.833333333333,2167.6666666666665,-119.83333333333333,91,0.47
2024-06-06 11:48:45.116,3739.0,931.6,-125.4,112,0.58
2024-06-06 11:48:45.341,3583.6,1195.0,-46.6,112,0.58
2024-06-06 11:48:45.537,4480.666666666667,1615.8333333333333,939.0,112,0.58
2024-06-06 11:48:45.760,3075.6,1835.0,408.0,112,0.58
2024-06-06 11:48:45.941,4078.8,2104.6,598.0,112,0.58
2024-06-06 11:48:46.222,4889.833333333333,1685.5,489.1666666666667,112,0.58
2024-06-06 11:48:46.326,3792.2,899.2,238.4,112,0.58
2024-06-06 11:48:46.525,2754.0,837.0,229.0,112,0.58
2024-06-06 11:48:46.526,3829.25,1172.25,-372.25,112,0.58
2024-06-06 11:48:46.803,4758.0,1949.3333333333333,-327.6666666666667,112,0.58
2024-06-06 11:48:46.960,3199.0,1781.0,-203.8,112,0.58
2024-06-06 11:48:47.129,3950.6,2144.6,469.4,112,0.58
2024-06-06 11:48:47.319,4388.333333333333,1234.0,1095.0,112,0.58
2024-06-06 11:48:47.599,3567.6,1645.8,367.4,112,0.58
2024-06-06 11:48:47.727,3492.8,1576.8,531.8,112,0.58
2024-06-06 11:48:47.949,4575.0,1429.4,349.8,112,0.58
2024-06-06 11:48:48.114,3402.8333333333335,1170.3333333333333,531.8333333333334,112,0.58
2024-06-06 11:48:48.341,3457.6,1334.4,877.8,112,0.58
2024-06-06 11:48:48.711,4690.4,1885.4,574.6,112,0.58
2024-06-06 11:48:48.721,4084.8333333333335,1580.0,262.1666666666667,112,0.58
2024-06-06 11:48:48.910,3340.6,1126.8,-50.6,112,0.58
2024-06-06 11:48:49.143,4778.0,1458.4,134.6,112,0.58
2024-06-06 11:48:49.315,3545.6,1301.6,438.4,112,0.58
2024-06-06 11:48:49.510,3518.6666666666665,1911.8333333333333,623.8333333333334,112,0.58
2024-06-06 11:48:49.719,4741.8,2201.2,267.2,112,0.58
2024-06-06 11:48:49.977,4042.0,1019.0,-49.8,112,0.58
2024-06-06 11:48:50.127,3304.3333333333335,1048.0,-43.333333333333336,112,0.58
2024-06-06 11:48:50.319,5268.6,1720.4,317.6,112,0.58
2024-06-06 11:48:50.521,2317.8,1259.6,486.2,112,0.58
2024-06-06 11:48:50.711,3133.6666666666665,1381.3333333333333,540.0,112,0.58
2024-06-06 11:48:50.903,5899.2,536.4,-517.0,112,0.58
2024-06-06 11:48:51.177,2806.0,616.8,36.4,112,0.58
2024-06-06 11:48:51.307,4248.4,1505.8,240.4,112,0.58
2024-06-06 11:48:51.521,3247.1666666666665,552.8333333333334,398.0,117,0.61
2024-06-06 11:48:51.714,4877.0,56.4,-719.4,117,0.61
2024-06-06 11:48:51.906,4251.2,1359.6,189.4,117,0.61
2024-06-06 11:48:52.133,3864.5,349.0,-58.333333333333336,117,0.61
2024-06-06 11:48:52.326,4645.0,469.4,-488.2,117,0.61
2024-06-06 11:48:52.506,3060.4,1130.4,-27.0,117,0.61
2024-06-06 11:48:52.729,4784.5,1368.1666666666667,748.8333333333334,117,0.61
2024-06-06 11:48:52.925,3660.8,1291.6,-1.4,117,0.61
2024-06-06 11:48:53.104,4142.2,973.0,-354.0,117,0.61
2024-06-06 11:48:53.334,4603.166666666667,675.5,861.3333333333334,117,0.61
2024-06-06 11:48:53.516,3908.8,1461.0,585.0,117,0.61
2024-06-06 11:48:53.807,4896.8,2286.8,69.0,117,0.61
2024-06-06 11:48:53.919,3277.8,1168.4,123.2,117,0.61
2024-06-06 11:48:54.125,4391.666666666667,1222.0,199.83333333333334,117,0.61
2024-06-06 11:48:54.325,3916.0,1474.8,585.2,117,0.61
2024-06-06 11:48:54.518,2767.0,1935.0,707.6,117,0.61
2024-06-06 11:48:54.713,4461.166666666667,2502.5,513.6666666666666,117,0.61
2024-06-06 11:48:54.906,5163.0,1614.6,170.6,117,0.61
2024-06-06 11:48:55.188,2864.2,855.0,46.4,117,0.61
2024-06-06 11:48:55.316,4825.5,1625.1666666666667,208.83333333333334,117,0.61
2024-06-06 11:48:55.511,3568.0,1741.8,775.0,117,0.61
2024-06-06 11:48:55.720,2133.4,1161.4,733.0,117,0.61
2024-06-06 11:48:55.956,6128.5,1246.1666666666667,-422.0,117,0.61
2024-06-06 11:48:56.106,3137.8,66.0,397.8,117,0.61
2024-06-06 11:48:56.339,2912.2,1142.2,-113.8,117,0.61
2024-06-06 11:48:56.565,5888.0,1652.4,-112.6,126,0.66
2024-06-06 11:48:56.725,2647.8333333333335,526.0,781.1666666666666,126,0.66
2024-06-06 11:48:57.014,4002.4,1104.8,138.2,126,0.66
2024-06-06 11:48:57.141,5904.8,968.4,-648.0,126,0.66
2024-06-06 11:48:57.409,2160.1666666666665,533.6666666666666,213.0,126,0.66
2024-06-06 11:48:57.518,6059.0,1464.4,-506.6,126,0.66
2024-06-06 11:48:57.712,3103.6,330.8,1130.4,126,0.66
2024-06-06 11:48:57.919,3784.0,1083.5,77.66666666666667,126,0.66
2024-06-06 11:48:58.120,5679.0,942.6,-315.4,126,0.66
2024-06-06 11:48:58.332,1896.0,138.0,190.6,126,0.66
2024-06-06 11:48:58.541,3884.75,1092.25,-251.5,126,0.66
2024-06-06 11:48:58.542,8269.0,1577.0,-666.5,126,0.66
2024-06-06 11:48:58.716,4166.2,453.0,1112.2,126,0.66
2024-06-06 11:48:58.969,2306.6,657.6,305.6,126,0.66
2024-06-06 11:48:59.108,5980.4,1309.4,-409.8,126,0.66
2024-06-06 11:48:59.335,2847.8333333333335,294.0,497.3333333333333,126,0.66
2024-06-06 11:48:59.515,3738.6,1181.8,-752.4,126,0.66
2024-06-06 11:48:59.708,6283.6,639.4,794.4,126,0.66
2024-06-06 11:48:59.920,2107.5,627.3333333333334,337.5,126,0.66
2024-06-06 11:49:00.114,6063.2,1336.0,-530.8,126,0.66
2024-06-06 11:49:00.320,3299.0,70.8,452.2,126,0.66
2024-06-06 11:49:00.565,2948.2,836.8,-265.2,126,0.66
2024-06-06 11:49:00.717,5612.333333333333,836.3333333333334,253.16666666666666,126,0.66
2024-06-06 11:49:00.911,2264.8,442.6,932.8,126,0.66
2024-06-06 11:49:01.182,5895.0,970.4,-381.6,126,0.66
2024-06-06 11:49:01.316,3799.1666666666665,589.8333333333334,89.66666666666667,126,0.66
2024-06-06 11:49:01.609,1980.2,354.2,174.0,124,0.65
2024-06-06 11:49:01.700,4920.8,1242.2,629.8,124,0.65
2024-06-06 11:49:01.915,5580.5,914.8333333333334,-17.166666666666668,124,0.65
2024-06-06 11:49:02.108,2968.0,-271.6,-67.4,124,0.65
2024-06-06 11:49:02.340,3644.2,1084.8,210.4,124,0.65
2024-06-06 11:49:02.544,3967.0,1337.2,1003.2,124,0.65
2024-06-06 11:49:02.754,5507.333333333333,176.16666666666666,-248.0,124,0.65
2024-06-06 11:49:02.935,2660.0,108.4,-387.8,124,0.65
2024-06-06 11:49:03.130,3960.4,1250.6,-103.4,124,0.65
2024-06-06 11:49:03.325,5493.0,973.1666666666666,415.8333333333333,124,0.65
2024-06-06 11:49:03.519,3315.4,496.0,270.4,124,0.65
2024-06-06 11:49:03.768,3184.8,978.6,-241.2,124,0.65
2024-06-06 11:49:03.909,5780.166666666667,340.6666666666667,379.5,124,0.65
2024-06-06 11:49:04.131,2666.0,719.6,780.6,124,0.65
2024-06-06 11:49:04.465,5093.4,2122.0,245.2,124,0.65
2024-06-06 11:49:04.524,3925.5,1258.6666666666667,46.833333333333336,124,0.65
2024-06-06 11:49:04.721,3563.0,1068.6,-124.6,124,0.65
2024-06-06 11:49:04.976,4773.4,1658.4,374.6,124,0.65
2024-06-06 11:49:05.126,2985.8,1465.8,632.6,124,0.65
2024-06-06 11:49:05.401,4001.3333333333335,1977.5,657.0,124,0.65
2024-06-06 11:49:05.532,4975.6,1887.6,447.0,124,0.65
2024-06-06 11:49:05.708,3513.6,1040.0,126.6,124,0.65
2024-06-06 11:49:05.936,3939.6666666666665,1199.3333333333333,-35.666666666666664,124,0.65
2024-06-06 11:49:06.115,4394.8,1745.4,353.8,124,0.65
2024-06-06 11:49:06.394,3125.8,1964.6,796.2,124,0.65
2024-06-06 11:49:06.522,4325.166666666667,2409.3333333333335,957.3333333333334,121,0.63
2024-06-06 11:49:06.714,4679.8,1438.8,220.2,121,0.63
2024-06-06 11:49:06.938,3523.0,1052.6,-59.4,121,0.63
2024-06-06 11:49:07.122,4412.0,1337.6666666666667,451.8333333333333,121,0.63
2024-06-06 11:49:07.433,3258.0,1505.2,274.6,121,0.63
2024-06-06 11:49:07.543,4084.8,2244.0,729.8,121,0.63
2024-06-06 11:49:07.736,4812.0,2397.6,524.0,121,0.63
2024-06-06 11:49:07.933,3831.3333333333335,1208.8333333333333,52.666666666666664,121,0.63
2024-06-06 11:49:08.139,3940.0,1242.2,72.6,121,0.63
2024-06-06 11:49:08.317,4349.2,1520.8,460.4,121,0.63
2024-06-06 11:49:08.508,3296.5,2020.0,638.6666666666666,121,0.63
2024-06-06 11:49:08.883,4546.0,2548.2,492.6,121,0.63
2024-06-06 11:49:08.915,4461.4,1760.6,57.0,121,0.63
2024-06-06 11:49:09.109,3586.0,1116.5,-1.5,121,0.63
2024-06-06 11:49:09.318,4579.2,1270.4,478.6,121,0.63
2024-06-06 11:49:09.514,3514.4,1617.2,572.8,121,0.63
2024-06-06 11:49:09.711,3894.6,2331.8,616.4,121,0.63
2024-06-06 11:49:09.938,4861.833333333333,3281.1666666666665,24.333333333333332,121,0.63
2024-06-06 11:49:10.114,4382.0,3227.4,-822.8,121,0.63
2024-06-06 11:49:10.311,1355.4,2731.6,427.6,121,0.63
2024-06-06 11:49:10.534,-556.1666666666666,3866.5,729.0,121,0.63
2024-06-06 11:49:10.715,-1202.0,3273.0,612.2,121,0.63
2024-06-06 11:49:10.912,-1857.4,4251.2,515.8,121,0.63
2024-06-06 11:49:11.148,-1505.6,3955.8,202.6,121,0.63
2024-06-06 11:49:11.313,-1584.3333333333333,3261.3333333333335,548.5,121,0.63
2024-06-06 11:49:11.510,-1342.6,4569.4,617.6,121,0.63
2024-06-06 11:49:11.719,-796.4,3954.4,528.8,121,0.63
2024-06-06 11:49:11.931,-1304.5,3479.6666666666665,749.3333333333334,121,0.63
2024-06-06 11:49:12.111,-1821.0,4373.2,392.4,121,0.63
2024-06-06 11:49:12.304,-1211.2,3235.4,614.2,121,0.63
2024-06-06 11:49:12.517,690.8333333333334,2989.1666666666665,1227.0,118,0.62
2024-06-06 11:49:12.710,4552.6,2527.4,609.2,118,0.62
2024-06-06 11:49:12.905,4289.2,2562.4,-67.0,118,0.62
2024-06-06 11:49:13.117,3944.8333333333335,2692.6666666666665,249.83333333333334,118,0.62
2024-06-06 11:49:13.312,4951.8,2442.4,182.4,118,0.62
2024-06-06 11:49:13.517,3824.2,1054.0,-75.0,118,0.62
2024-06-06 11:49:13.713,3820.2,1205.6,-35.0,118,0.62
2024-06-06 11:49:13.919,4307.166666666667,1491.0,314.0,118,0.62
2024-06-06 11:49:14.119,3358.4,2172.6,472.0,118,0.62
2024-06-06 11:49:14.314,4573.0,2614.4,578.2,118,0.62
2024-06-06 11:49:14.529,4612.0,1716.5,71.66666666666667,118,0.62
2024-06-06 11:49:14.764,3541.6,1010.4,-180.8,118,0.62
2024-06-06 11:49:14.914,4693.0,1245.2,330.8,118,0.62
2024-06-06 11:49:15.140,3553.5,1619.6666666666667,423.0,118,0.62
2024-06-06 11:49:15.333,4135.8,2573.0,634.2,118,0.62
2024-06-06 11:49:15.530,4904.0,2497.0,153.6,118,0.62
2024-06-06 11:49:15.754,3881.3333333333335,1109.6666666666667,181.33333333333334,118,0.62
2024-06-06 11:49:15.920,4127.2,1063.2,315.0,118,0.62
2024-06-06 11:49:16.113,4368.2,1777.2,365.0,118,0.62
2024-06-06 11:49:16.345,3377.6,2115.8,329.2,118,0.62
2024-06-06 11:49:16.518,4411.166666666667,2580.6666666666665,492.5,118,0.62
2024-06-06 11:49:16.714,5051.8,1052.6,-345.0,118,0.62
2024-06-06 11:49:16.927,3292.0,797.2,-214.8,118,0.62
2024-06-06 11:49:17.118,4395.666666666667,1876.5,556.8333333333334,118,0.62
2024-06-06 11:49:17.312,3668.2,1369.6,805.4,118,0.62
2024-06-06 11:49:17.576,3961.0,1118.4,273.4,116,0.61
2024-06-06 11:49:17.723,3925.6666666666665,1179.8333333333333,325.6666666666667,116,0.61
2024-06-06 11:49:17.920,3818.2,1582.2,269.2,116,0.61
2024-06-06 11:49:18.109,3830.4,1677.0,257.8,116,0.61
2024-06-06 11:49:18.319,3787.0,1605.1666666666667,223.0,116,0.61
2024-06-06 11:49:18.589,3797.4,1604.2,238.8,116,0.61
2024-06-06 11:49:18.716,4288.0,3061.2,1521.8,116,0.61
2024-06-06 11:49:18.911,3268.2,5160.6,2522.6,116,0.61
2024-06-06 11:49:19.115,-1599.8333333333333,1805.0,866.0,116,0.61
2024-06-06 11:49:19.357,-2522.4,-840.4,943.6,116,0.61
2024-06-06 11:49:19.505,-2763.8,-1060.8,1734.0,116,0.61
2024-06-06 11:49:19.714,-3439.1666666666665,-1223.0,1817.3333333333333,116,0.61
2024-06-06 11:49:19.915,-3544.4,-1898.2,1569.4,116,0.61
2024-06-06 11:49:20.172,-3477.4,-1596.0,1521.6,116,0.61
2024-06-06 11:49:20.319,-3374.2,-1429.0,1253.8,116,0.61
2024-06-06 11:49:20.514,-2478.8333333333335,-1549.6666666666667,1572.5,116,0.61
2024-06-06 11:49:20.707,-2006.8,-1818.0,879.2,116,0.61
2024-06-06 11:49:20.936,763.8,2869.2,830.0,116,0.61
2024-06-06 11:49:21.117,7090.0,4078.6666666666665,1809.1666666666667,116,0.61
2024-06-06 11:49:21.312,3723.2,1933.6,874.2,116,0.61
2024-06-06 11:49:21.545,4408.6,1609.0,-185.8,116,0.61
2024-06-06 11:49:21.729,3541.6666666666665,1521.5,-469.8333333333333,116,0.61
2024-06-06 11:49:21.954,4047.6,1785.2,100.2,116,0.61
2024-06-06 11:49:22.138,3771.8,1673.2,1236.2,116,0.61
2024-06-06 11:49:22.331,3463.8,1615.4,183.8,116,0.61
2024-06-06 11:49:22.508,3541.0,1578.1666666666667,377.0,116,0.61
2024-06-06 11:49:22.720,3986.6,2186.0,389.0,116,0.61
2024-06-06 11:49:23.015,4378.6,1426.2,132.0,116,0.61
2024-06-06 11:49:23.125,3687.0,1452.0,-12.0,116,0.61
2024-06-06 11:49:23.318,3752.2,2346.2,23.4,116,0.61
2024-06-06 11:49:23.514,3666.0,2073.0,59.0,116,0.61
2024-06-06 11:49:23.515,3347.75,2061.25,89.75,116,0.61
2024-06-06 11:49:23.748,3503.3333333333335,2561.1666666666665,1154.1666666666667,116,0.61
2024-06-06 11:49:23.962,3419.8,1845.6,740.4,116,0.61
2024-06-06 11:49:24.111,3457.8,1962.2,847.2,116,0.61
2024-06-06 11:49:24.310,3556.6666666666665,1643.5,447.3333333333333,116,0.61
2024-06-06 11:49:24.522,4172.8,1914.0,429.6,116,0.61
2024-06-06 11:49:24.716,4027.0,1490.8,127.8,116,0.61
2024-06-06 11:49:24.970,3679.8333333333335,1412.1666666666667,56.5,116,0.61
2024-06-06 11:49:25.120,4122.0,1608.8,147.2,116,0.61
2024-06-06 11:49:25.314,3486.0,1715.2,493.0,116,0.61
2024-06-06 11:49:25.524,3611.2,1767.0,945.8,116,0.61
2024-06-06 11:49:25.720,3601.0,1604.3333333333333,735.3333333333334,116,0.61
2024-06-06 11:49:25.932,4010.2,2112.8,530.0,116,0.61
2024-06-06 11:49:26.126,4159.6,1624.2,237.0,116,0.61
2024-06-06 11:49:26.322,3720.0,1271.1666666666667,-5.666666666666667,116,0.61
2024-06-06 11:49:26.529,3567.0,1392.8,200.4,116,0.61
2024-06-06 11:49:26.721,4581.6,1990.6,254.0,116,0.61
2024-06-06 11:49:26.919,3509.3333333333335,1736.1666666666667,155.33333333333334,116,0.61
2024-06-06 11:49:27.116,3709.8,939.6,996.2,116,0.61
2024-06-06 11:49:27.362,4028.4,1799.2,451.6,116,0.61
2024-06-06 11:49:27.534,4013.8333333333335,1817.3333333333333,124.0,114,0.6
2024-06-06 11:49:27.797,3777.4,1316.2,-40.8,114,0.6
2024-06-06 11:49:27.925,3647.0,1341.6,87.2,114,0.6
2024-06-06 11:49:28.118,4184.8,1884.6,439.2,114,0.6
2024-06-06 11:49:28.389,3955.0,1618.0,188.0,114,0.6
2024-06-06 11:49:28.390,3477.0,1678.8,172.8,114,0.6
2024-06-06 11:49:28.510,3665.8,1460.4,482.4,114,0.6
2024-06-06 11:49:28.816,4422.8,1769.6,307.8,114,0.6
2024-06-06 11:49:28.916,3815.3333333333335,1687.1666666666667,-89.33333333333333,114,0.6
2024-06-06 11:49:29.105,3660.0,1326.4,-403.6,114,0.6
2024-06-06 11:49:29.317,4013.4,1381.6,-35.6,114,0.6
2024-06-06 11:49:29.511,3888.8,1913.4,946.0,114,0.6
2024-06-06 11:49:29.727,3414.5,1549.3333333333333,174.5,114,0.6
2024-06-06 11:49:29.918,3698.6,1669.0,350.6,114,0.6
2024-06-06 11:49:30.114,4582.4,2025.4,373.0,114,0.6
2024-06-06 11:49:30.306,4553.166666666667,1154.8333333333333,-75.33333333333333,114,0.6
2024-06-06 11:49:30.516,3387.4,1298.6,-181.6,114,0.6
2024-06-06 11:49:30.713,3509.8,2393.4,-91.0,114,0.6
2024-06-06 11:49:30.912,3549.5,2651.3333333333335,167.33333333333334,114,0.6
2024-06-06 11:49:31.120,3540.4,2445.6,1198.2,114,0.6
2024-06-06 11:49:31.329,3621.6,2355.6,1046.4,114,0.6
2024-06-06 11:49:31.521,3999.4,2051.2,-144.8,114,0.6
2024-06-06 11:49:31.716,4879.5,1609.8333333333333,-422.3333333333333,114,0.6
2024-06-06 11:49:31.913,3710.4,1180.6,-41.4,114,0.6
2024-06-06 11:49:32.126,3456.8,1123.0,1110.8,114,0.6
2024-06-06 11:49:32.404,4168.333333333333,2572.5,919.8333333333334,114,0.6
2024-06-06 11:49:32.510,3556.6,2257.6,479.6,114,0.6
2024-06-06 11:49:32.712,4023.0,2485.0,205.4,114,0.6
2024-06-06 11:49:32.919,4741.333333333333,1534.8333333333333,-215.66666666666666,114,0.6
2024-06-06 11:49:33.113,4026.4,1078.2,-241.6,114,0.6
2024-06-06 11:49:33.379,3701.6,1172.0,384.2,114,0.6
2024-06-06 11:49:33.517,4336.166666666667,1960.6666666666667,588.6666666666666,114,0.6
2024-06-06 11:49:33.716,3696.2,2381.8,586.0,114,0.6
2024-06-06 11:49:33.939,4304.0,2544.2,361.0,114,0.6
2024-06-06 11:49:34.116,5157.0,1727.0,-208.6,114,0.6
2024-06-06 11:49:34.386,3728.0,1091.8333333333333,-453.6666666666667,114,0.6
2024-06-06 11:49:34.511,4212.2,1284.8,123.8,114,0.6
2024-06-06 11:49:34.720,4250.8,1586.0,963.0,114,0.6
2024-06-06 11:49:34.911,3476.5,2160.0,719.6666666666666,114,0.6
2024-06-06 11:49:35.172,4641.4,2158.8,405.8,114,0.6
2024-06-06 11:49:35.336,4216.4,1142.6,446.8,114,0.6
2024-06-06 11:49:35.515,3860.6666666666665,997.8333333333334,633.8333333333334,114,0.6
2024-06-06 11:49:35.762,3842.6,1820.8,621.0,114,0.6
2024-06-06 11:49:35.921,3743.6,2047.8,459.2,114,0.6
2024-06-06 11:49:36.194,3981.8333333333335,2599.3333333333335,615.5,114,0.6
2024-06-06 11:49:36.340,4635.2,1715.0,38.8,114,0.6
2024-06-06 11:49:36.518,3577.2,1119.8,178.2,114,0.6
2024-06-06 11:49:36.714,3802.0,1729.0,316.4,114,0.6
2024-06-06 11:49:36.941,3316.5,3183.3333333333335,305.8333333333333,114,0.6
2024-06-06 11:49:37.165,3251.0,1390.0,1099.4,114,0.6
2024-06-06 11:49:37.327,4590.6,2207.0,84.6,114,0.6
2024-06-06 11:49:37.523,3615.5,1594.3333333333333,228.33333333333334,114,0.6
2024-06-06 11:49:37.718,3549.0,1269.2,49.4,114,0.6
2024-06-06 11:49:37.999,4594.6,1525.4,344.6,114,0.6
2024-06-06 11:49:38.169,3115.3333333333335,1510.3333333333333,531.6666666666666,114,0.6
2024-06-06 11:49:38.330,3828.0,1909.6,649.4,114,0.6
2024-06-06 11:49:38.547,4610.6,2328.8,398.4,114,0.6
2024-06-06 11:49:38.708,3696.2,1191.2,271.8,114,0.6
2024-06-06 11:49:38.916,3958.6666666666665,1202.6666666666667,177.0,114,0.6
2024-06-06 11:49:39.143,4076.0,1749.2,467.8,114,0.6
2024-06-06 11:49:39.306,2836.2,1728.0,515.0,114,0.6
2024-06-06 11:49:39.524,4436.833333333333,2262.3333333333335,768.0,114,0.6
2024-06-06 11:49:39.714,4813.0,2244.0,401.0,114,0.6
2024-06-06 11:49:39.715,3867.25,1557.75,255.25,114,0.6
2024-06-06 11:49:39.937,3374.0,1172.0,37.8,114,0.6
2024-06-06 11:49:40.139,4547.333333333333,1390.5,199.16666666666666,114,0.6
2024-06-06 11:49:40.316,2851.2,1633.6,626.0,114,0.6
2024-06-06 11:49:40.513,3371.6,2711.8,-192.2,114,0.6
2024-06-06 11:49:40.735,4619.2,2456.0,316.4,114,0.6
2024-06-06 11:49:40.932,3204.8333333333335,1289.1666666666667,193.33333333333334,114,0.6
2024-06-06 11:49:41.104,4267.6,1479.6,-16.0,114,0.6
2024-06-06 11:49:41.306,4039.2,1698.8,453.4,114,0.6
2024-06-06 11:49:41.514,2802.3333333333335,1584.1666666666667,713.5,114,0.6
2024-06-06 11:49:41.806,4875.8,2192.2,586.2,114,0.6
2024-06-06 11:49:41.919,3719.0,1526.2,293.8,114,0.6
2024-06-06 11:49:42.111,3744.6666666666665,1163.5,-14.0,114,0.6
2024-06-06 11:49:42.321,4466.4,1439.4,304.4,114,0.6
2024-06-06 11:49:42.519,2664.6,1741.0,445.0,114,0.6
2024-06-06 11:49:42.711,4171.8,1827.4,702.6,114,0.6
2024-06-06 11:49:42.926,4457.0,2123.1666666666665,325.3333333333333,114,0.6
2024-06-06 11:49:43.122,3259.8,1083.0,10.2,114,0.6
2024-06-06 11:49:43.315,4252.8,1150.6,-11.4,114,0.6
2024-06-06 11:49:43.507,3822.5,1687.1666666666667,563.0,114,0.6
2024-06-06 11:49:43.786,3005.4,1748.6,612.2,114,0.6
2024-06-06 11:49:43.913,4664.2,2189.8,655.8,114,0.6
2024-06-06 11:49:44.189,3860.5,1529.6666666666667,174.33333333333334,114,0.6
2024-06-06 11:49:44.349,3565.4,1150.4,-98.6,114,0.6
2024-06-06 11:49:44.620,4323.8,1620.0,211.4,114,0.6
2024-06-06 11:49:44.797,3193.6666666666665,1671.1666666666667,588.3333333333334,114,0.6
2024-06-06 11:49:44.961,4159.0,1874.0,672.8,114,0.6
2024-06-06 11:49:45.115,4672.8,2156.0,339.2,114,0.6
2024-06-06 11:49:45.324,3029.4,1132.6,116.2,114,0.6
2024-06-06 11:49:45.633,4605.333333333333,1436.6666666666667,-23.166666666666668,113,0.59
2024-06-06 11:49:45.715,3506.0,1380.4,615.0,113,0.59
2024-06-06 11:49:45.937,2756.0,1773.6,638.2,113,0.59
2024-06-06 11:49:46.116,4794.5,2251.8333333333335,464.0,113,0.59
2024-06-06 11:49:46.311,3823.8,1386.8,117.4,113,0.59
2024-06-06 11:49:46.520,3467.8,1120.6,-140.2,113,0.59
2024-06-06 11:49:46.723,4841.666666666667,1369.0,290.0,113,0.59
2024-06-06 11:49:46.944,2615.6,1658.4,674.8,113,0.59
2024-06-06 11:49:47.140,4306.0,2120.4,546.8,113,0.59
2024-06-06 11:49:47.372,4513.166666666667,1942.1666666666667,377.5,113,0.59
2024-06-06 11:49:47.530,3234.6,1086.6,-131.4,113,0.59
2024-06-06 11:49:47.725,4633.4,1258.8,-101.4,113,0.59
2024-06-06 11:49:47.985,3610.8,1648.2,606.2,113,0.59
2024-06-06 11:49:48.116,3462.3333333333335,2029.5,684.0,113,0.59
2024-06-06 11:49:48.384,4846.2,2529.2,473.8,113,0.59
2024-06-06 11:49:48.578,3972.0,1237.6,55.4,112,0.58
2024-06-06 11:49:48.729,3553.8333333333335,1090.3333333333333,-176.66666666666666,112,0.58
2024-06-06 11:49:48.926,4693.0,1624.6,401.4,112,0.58
2024-06-06 11:49:49.161,2908.8,1851.2,607.6,112,0.58
2024-06-06 11:49:49.432,4346.5,2200.5,615.3333333333334,112,0.58
2024-06-06 11:49:49.536,4558.6,2090.4,175.4,112,0.58
2024-06-06 11:49:49.715,3181.8,1206.2,-113.2,112,0.58
2024-06-06 11:49:49.975,4437.8,1344.2,-96.0,112,0.58
2024-06-06 11:49:50.125,3613.6666666666665,1612.1666666666667,659.1666666666666,112,0.58
2024-06-06 11:49:50.365,3477.0,2076.0,598.6,112,0.58
2024-06-06 11:49:50.547,4599.8,2488.8,511.4,112,0.58
2024-06-06 11:49:50.822,4285.0,1467.6666666666667,50.333333333333336,112,0.58
2024-06-06 11:49:50.917,3293.2,1069.2,-242.8,112,0.58
2024-06-06 11:49:51.116,4707.4,1609.4,411.0,112,0.58
2024-06-06 11:49:51.334,3462.0,1827.2,493.6,112,0.58
2024-06-06 11:49:51.520,4009.6666666666665,2255.5,514.5,120,0.63
2024-06-06 11:49:51.717,5093.6,2172.0,345.0,120,0.63
2024-06-06 11:49:51.910,3272.8,966.0,-20.8,120,0.63
2024-06-06 11:49:52.118,4279.666666666667,1278.5,-144.66666666666666,120,0.63
2024-06-06 11:49:52.331,4089.0,1585.4,579.0,120,0.63
2024-06-06 11:49:52.508,2915.0,2040.2,739.4,120,0.63
2024-06-06 11:49:52.731,4881.333333333333,2402.6666666666665,527.1666666666666,120,0.63
2024-06-06 11:49:52.915,4161.8,1407.0,141.6,120,0.63
2024-06-06 11:49:53.181,3245.2,1027.4,-208.6,120,0.63
2024-06-06 11:49:53.318,4816.666666666667,1718.3333333333333,365.1666666666667,120,0.63
2024-06-06 11:49:53.514,3107.8,1759.2,789.2,120,0.63
2024-06-06 11:49:53.726,4148.6,1923.4,727.0,120,0.63
2024-06-06 11:49:53.920,4778.8,2153.0,457.6,120,0.63
2024-06-06 11:49:54.113,3120.1666666666665,1024.8333333333333,192.16666666666666,120,0.63
2024-06-06 11:49:54.326,4364.0,1421.6,218.4,120,0.63
2024-06-06 11:49:54.532,4047.8,1796.4,527.2,120,0.63
2024-06-06 11:49:54.716,3171.1666666666665,1865.5,481.6666666666667,120,0.63
2024-06-06 11:49:54.925,4569.6,2508.4,666.2,120,0.63
2024-06-06 11:49:55.133,4057.8,1486.6,94.8,120,0.63
2024-06-06 11:49:55.356,3556.1666666666665,1083.8333333333333,-20.0,120,0.63
2024-06-06 11:49:55.526,4822.2,1610.2,533.2,120,0.63
2024-06-06 11:49:55.717,2834.6,1494.2,561.8,120,0.63
2024-06-06 11:49:55.909,4104.833333333333,2408.6666666666665,960.6666666666666,120,0.63
2024-06-06 11:49:56.121,4629.8,2121.2,569.2,120,0.63
2024-06-06 11:49:56.317,3434.8,1060.0,303.8,120,0.63
2024-06-06 11:49:56.525,4277.4,1147.2,308.8,120,0.63
2024-06-06 11:49:56.823,4129.666666666667,1732.0,888.5,120,0.63
2024-06-06 11:49:56.993,3185.6,2097.4,673.0,120,0.63
2024-06-06 11:49:57.131,4631.6,2595.8,464.6,120,0.63
2024-06-06 11:49:57.337,4598.333333333333,1532.1666666666667,-52.666666666666664,120,0.63
2024-06-06 11:49:57.607,3994.4,983.0,-400.0,120,0.63
2024-06-06 11:49:57.815,4486.4,1424.6,260.8,120,0.63
2024-06-06 11:49:57.952,3370.8333333333335,1676.0,907.1666666666666,120,0.63
2024-06-06 11:49:58.132,4496.8,2295.4,881.2,120,0.63
2024-06-06 11:49:58.329,5169.6,2116.8,331.0,120,0.63
2024-06-06 11:49:58.590,4445.0,1281.0,200.0,120,0.63
2024-06-06 11:49:58.591,3448.6,667.8,187.6,120,0.63
2024-06-06 11:49:58.763,3990.8,1147.4,71.4,120,0.63
2024-06-06 11:49:58.912,5199.4,2229.2,559.8,120,0.63
2024-06-06 11:49:59.135,3082.8,2492.2,532.2,121,0.63
2024-06-06 11:49:59.314,5008.333333333333,2597.5,762.1666666666666,121,0.63
2024-06-06 11:49:59.512,5060.2,1251.0,773.6,121,0.63
2024-06-06 11:49:59.756,2476.0,409.2,705.2,121,0.63
2024-06-06 11:49:59.922,4380.833333333333,2814.5,944.1666666666666,121,0.63
2024-06-06 11:50:00.114,3882.4,2814.4,728.4,121,0.63
2024-06-06 11:50:00.320,3664.2,3071.0,465.2,121,0.63
2024-06-06 11:50:00.519,5065.4,2372.8,-515.8,121,0.63
2024-06-06 11:50:00.786,4292.333333333333,1201.3333333333333,-704.3333333333334,121,0.63
2024-06-06 11:50:00.910,4447.8,914.6,-446.2,121,0.63
2024-06-06 11:50:01.121,3998.0,1124.2,1216.6,121,0.63
2024-06-06 11:50:01.417,3333.5,1798.8333333333333,1521.5,121,0.63
2024-06-06 11:50:01.523,4879.2,2389.8,651.6,121,0.63
2024-06-06 11:50:01.749,4502.0,1555.0,50.2,121,0.63
2024-06-06 11:50:01.914,3500.5,1006.3333333333334,-324.0,121,0.63
2024-06-06 11:50:02.143,4753.0,1585.6,263.0,121,0.63
2024-06-06 11:50:02.315,3567.0,1877.2,798.0,121,0.63
2024-06-06 11:50:02.510,3949.6,2046.6,874.8,121,0.63
2024-06-06 11:50:02.710,5012.0,2152.6666666666665,33.0,121,0.63
2024-06-06 11:50:02.934,3716.6,1047.2,-127.4,121,0.63
2024-06-06 11:50:03.113,3335.0,1017.6,-126.2,121,0.63
2024-06-06 11:50:03.305,4963.0,1790.5,580.1666666666666,121,0.63
2024-06-06 11:50:03.531,3094.8,1868.4,587.0,121,0.63
2024-06-06 11:50:03.713,4492.8,2323.8,504.6,121,0.63
2024-06-06 11:50:03.928,4489.333333333333,1598.5,35.333333333333336,121,0.63
2024-06-06 11:50:04.153,3294.4,1057.8,-246.2,121,0.63
2024-06-06 11:50:04.371,4529.0,1434.6,196.4,121,0.63
2024-06-06 11:50:04.540,3653.0,1589.8333333333333,694.1666666666666,121,0.63
2024-06-06 11:50:04.715,3775.6,1867.4,696.0,121,0.63
2024-06-06 11:50:04.915,4733.6,2414.8,577.6,121,0.63
2024-06-06 11:50:05.126,4090.8,1164.0,263.0,121,0.63
2024-06-06 11:50:05.316,3523.3333333333335,1107.5,112.33333333333333,121,0.63
2024-06-06 11:50:05.512,5066.8,1475.4,341.2,121,0.63
2024-06-06 11:50:05.726,2832.4,1715.8,774.2,121,0.63
2024-06-06 11:50:05.920,4469.666666666667,2455.8333333333335,707.5,121,0.63
2024-06-06 11:50:06.111,4520.8,1776.6,443.2,121,0.63
2024-06-06 11:50:06.354,3424.0,1029.6,-56.4,121,0.63
2024-06-06 11:50:06.519,4754.166666666667,1354.5,215.0,124,0.65
2024-06-06 11:50:06.716,3289.4,1503.0,628.8,124,0.65
2024-06-06 11:50:06.922,4034.8,2194.4,650.2,124,0.65
2024-06-06 11:50:07.183,4808.333333333333,2400.5,292.0,124,0.65
2024-06-06 11:50:07.364,3828.4,1120.2,-109.2,124,0.65
2024-06-06 11:50:07.527,3857.0,1107.8,-161.2,124,0.65
2024-06-06 11:50:07.720,4818.2,1410.0,498.8,124,0.65
2024-06-06 11:50:07.948,3059.3333333333335,1871.0,723.8333333333334,124,0.65
2024-06-06 11:50:08.252,4669.6,2580.4,545.8,124,0.65
2024-06-06 11:50:08.318,4941.0,1853.6,74.8,124,0.65
2024-06-06 11:50:08.516,3399.5,959.8333333333334,-284.3333333333333,124,0.65
2024-06-06 11:50:08.711,4460.0,1483.0,254.6,124,0.65
2024-06-06 11:50:08.983,3952.8,1696.6,596.0,124,0.65
2024-06-06 11:50:09.126,3801.1666666666665,2206.6666666666665,542.0,124,0.65
2024-06-06 11:50:09.326,5315.8,2308.8,332.2,124,0.65
2024-06-06 11:50:09.534,3670.0,1096.0,-52.8,124,0.65
2024-06-06 11:50:09.712,3863.0,1065.0,-310.6,124,0.65
2024-06-06 11:50:09.908,4436.833333333333,1456.6666666666667,540.3333333333334,124,0.65
2024-06-06 11:50:10.149,3120.6,1815.4,758.0,124,0.65
2024-06-06 11:50:10.334,4708.2,2351.0,541.6,124,0.65
2024-06-06 11:50:10.512,4418.166666666667,1743.8333333333333,138.5,124,0.65
2024-06-06 11:50:10.714,3395.4,1048.4,-210.0,124,0.65
2024-06-06 11:50:10.993,4671.4,1442.2,123.8,124,0.65
2024-06-06 11:50:11.167,3449.0,1460.8,581.8,124,0.65
2024-06-06 11:50:11.319,3930.3333333333335,2073.0,629.1666666666666,124,0.65
2024-06-06 11:50:11.530,5016.4,2401.2,433.8,124,0.65
2024-06-06 11:50:11.710,3950.6,1116.6,-13.2,124,0.65
2024-06-06 11:50:11.993,3865.0,1128.3333333333333,-99.16666666666667,124,0.65
2024-06-06 11:50:12.114,4548.0,1518.8,430.8,124,0.65
2024-06-06 11:50:12.309,3096.2,1832.4,485.4,124,0.65
2024-06-06 11:50:12.524,4470.5,2499.8333333333335,552.6666666666666,128,0.67
2024-06-06 11:50:12.714,4602.6,1703.2,173.8,128,0.67
2024-06-06 11:50:12.923,3410.4,1056.6,-180.4,128,0.67
2024-06-06 11:50:13.121,4494.666666666667,1389.3333333333333,158.66666666666666,128,0.67
2024-06-06 11:50:13.330,3534.4,1693.8,549.8,128,0.67
2024-06-06 11:50:13.571,3923.8,2144.4,622.0,128,0.67
2024-06-06 11:50:13.776,4870.0,2478.0,472.2,128,0.67
2024-06-06 11:50:13.914,4034.1666666666665,1179.8333333333333,-18.833333333333332,128,0.67
2024-06-06 11:50:14.141,3535.2,1055.8,-141.8,128,0.67
2024-06-06 11:50:14.317,4870.2,1541.8,392.2,128,0.67
2024-06-06 11:50:14.524,3202.6666666666665,1793.5,718.8333333333334,128,0.67
2024-06-06 11:50:14.710,4672.6,2466.0,666.8,128,0.67
2024-06-06 11:50:14.919,4804.2,1803.4,141.4,128,0.67
2024-06-06 11:50:15.130,3284.1666666666665,1017.3333333333334,-195.5,128,0.67
2024-06-06 11:50:15.326,4636.0,1398.0,123.0,128,0.67
2024-06-06 11:50:15.530,3778.4,1508.0,728.4,128,0.67
2024-06-06 11:50:15.844,3734.8333333333335,2114.5,610.5,128,0.67
2024-06-06 11:50:15.924,4942.8,2394.6,376.0,128,0.67
2024-06-06 11:50:16.119,3917.6,1144.0,64.0,128,0.67
2024-06-06 11:50:16.349,3438.4,1042.2,-185.2,128,0.67
2024-06-06 11:50:16.522,4931.666666666667,1492.8333333333333,495.1666666666667,128,0.67
2024-06-06 11:50:16.719,2826.4,1841.8,504.0,128,0.67
2024-06-06 11:50:16.997,4616.6,2450.8,601.2,128,0.67
2024-06-06 11:50:17.125,4676.833333333333,1835.3333333333333,291.0,128,0.67
2024-06-06 11:50:17.319,3156.8,1025.8,-128.2,128,0.67
2024-06-06 11:50:17.598,4657.0,1406.6,21.0,129,0.67
2024-06-06 11:50:17.740,3654.8333333333335,1601.6666666666667,485.5,129,0.67
2024-06-06 11:50:18.000,3956.4,2060.2,612.8,129,0.67
2024-06-06 11:50:18.116,4831.2,2553.4,483.2,129,0.67
2024-06-06 11:50:18.340,4159.666666666667,1192.3333333333333,-79.83333333333333,129,0.67
2024-06-06 11:50:18.516,3680.8,1032.2,-177.8,129,0.67
2024-06-06 11:50:18.730,4712.4,1489.2,441.6,129,0.67
2024-06-06 11:50:18.937,3245.0,1834.6,586.0,129,0.67
2024-06-06 11:50:19.121,4457.166666666667,2386.8333333333335,540.0,129,0.67
2024-06-06 11:50:19.374,4775.4,1841.0,186.2,129,0.67
2024-06-06 11:50:19.597,3378.6,1034.8,-209.4,129,0.67
2024-06-06 11:50:19.720,4356.833333333333,1331.8333333333333,166.0,129,0.67
2024-06-06 11:50:19.914,3889.2,1520.8,583.8,129,0.67
2024-06-06 11:50:20.106,3677.6,2015.6,552.2,129,0.67
2024-06-06 11:50:20.398,4596.0,2513.4,465.4,129,0.67
2024-06-06 11:50:20.544,4308.5,1416.1666666666667,-4.666666666666667,129,0.67
2024-06-06 11:50:20.706,3490.2,1047.2,-108.2,129,0.67
2024-06-06 11:50:20.917,5098.0,1411.8,381.0,129,0.67
2024-06-06 11:50:21.114,2994.6666666666665,1584.3333333333333,497.5,129,0.67
2024-06-06 11:50:21.393,4625.0,2355.6,681.6,129,0.67
2024-06-06 11:50:21.534,4666.8,2181.6,225.8,129,0.67
2024-06-06 11:50:21.714,3551.3333333333335,1040.6666666666667,-105.0,129,0.67
2024-06-06 11:50:21.977,4503.2,1236.2,-14.6,129,0.67
2024-06-06 11:50:22.119,3804.8,1447.8,606.6,129,0.67
2024-06-06 11:50:22.345,3449.0,2023.2,543.4,129,0.67
2024-06-06 11:50:22.527,4821.333333333333,2538.6666666666665,515.3333333333334,131,0.68
2024-06-06 11:50:22.720,4275.2,1399.8,17.2,131,0.68
2024-06-06 11:50:22.910,3445.0,1020.6,-377.4,131,0.68
2024-06-06 11:50:23.194,4767.0,1383.6666666666667,412.8333333333333,131,0.68
2024-06-06 11:50:23.379,3122.4,1782.2,631.6,131,0.68
2024-06-06 11:50:23.515,4263.6,2306.6,608.2,131,0.68
2024-06-06 11:50:23.705,4889.5,2239.8333333333335,166.5,131,0.68
2024-06-06 11:50:23.985,3665.0,1056.6,-164.8,131,0.68
2024-06-06 11:50:24.114,4267.8,1172.6,-104.2,131,0.68
2024-06-06 11:50:24.336,3983.3333333333335,1534.6666666666667,648.1666666666666,131,0.68
2024-06-06 11:50:24.533,3655.6,2174.8,711.6,131,0.68
2024-06-06 11:50:24.714,4610.2,2439.8,515.6,131,0.68
2024-06-06 11:50:24.995,4797.6,1502.4,32.6,131,0.68
2024-06-06 11:50:25.133,3406.5,1004.1666666666666,-155.16666666666666,131,0.68
2024-06-06 11:50:25.332,4704.6,1433.2,415.2,131,0.68
2024-06-06 11:50:25.522,5308.0,1483.0,339.0,131,0.68
2024-06-06 11:50:25.523,3540.75,1902.25,612.5,131,0.68
2024-06-06 11:50:25.783,3839.8333333333335,2344.0,774.3333333333334,131,0.68
2024-06-06 11:50:25.911,5103.0,2479.6,24.4,131,0.68
2024-06-06 11:50:26.120,4170.2,1248.6,-481.2,131,0.68
2024-06-06 11:50:26.315,4342.0,673.0,-307.6666666666667,131,0.68
2024-06-06 11:50:26.511,4221.8,823.6,419.8,131,0.68
2024-06-06 11:50:26.767,3517.4,1722.6,1024.8,131,0.68
2024-06-06 11:50:26.981,4566.166666666667,2033.8333333333333,748.8333333333334,131,0.68
2024-06-06 11:50:27.148,4277.2,1444.2,597.8,131,0.68
2024-06-06 11:50:27.344,3282.4,935.6,516.8,131,0.68
2024-06-06 11:50:27.535,4500.0,1526.6666666666667,263.6666666666667,131,0.68
2024-06-06 11:50:27.797,3554.2,1735.6,357.2,131,0.68
2024-06-06 11:50:27.924,3534.0,2079.4,804.0,131,0.68
2024-06-06 11:50:28.136,4781.0,2856.4,846.4,131,0.68
2024-06-06 11:50:28.330,4267.0,3936.6666666666665,-966.5,131,0.68
2024-06-06 11:50:28.605,1674.0,1907.0,122.6,131,0.68
2024-06-06 11:50:28.748,-71.0,4860.0,278.4,131,0.68
2024-06-06 11:50:28.923,-1192.5,3230.1666666666665,-58.333333333333336,131,0.68
2024-06-06 11:50:29.120,-2319.0,3801.4,-49.8,132,0.69
2024-06-06 11:50:29.317,-1891.6,3928.0,-366.4,132,0.69
2024-06-06 11:50:29.553,-1503.2,3277.8,-402.2,132,0.69
2024-06-06 11:50:29.721,-1534.3333333333333,4389.333333333333,-459.6666666666667,132,0.69
2024-06-06 11:50:29.915,-944.0,3883.2,-288.0,132,0.69
2024-06-06 11:50:30.112,-1471.2,3308.2,-134.6,132,0.69
2024-06-06 11:50:30.319,-1938.8333333333333,4415.833333333333,-604.8333333333334,132,0.69
2024-06-06 11:50:30.514,-1416.2,3261.6,-658.4,132,0.69
2024-06-06 11:50:30.709,-1597.0,3641.2,-819.6,132,0.69
2024-06-06 11:50:30.918,-1300.6,4540.4,-1216.2,132,0.69
2024-06-06 11:50:31.113,-830.1666666666666,3118.3333333333335,-992.8333333333334,132,0.69
2024-06-06 11:50:31.308,-1844.0,4244.4,-1299.4,132,0.69
2024-06-06 11:50:31.503,-1657.6,3623.4,-1781.8,132,0.69
2024-06-06 11:50:31.714,-1433.6666666666667,2905.1666666666665,-1076.8333333333333,132,0.69
2024-06-06 11:50:31.909,-1561.8,4416.4,-1610.2,132,0.69
2024-06-06 11:50:32.106,-755.8,3624.4,-1228.8,132,0.69
2024-06-06 11:50:32.314,-1374.3333333333333,3408.0,-692.8333333333334,132,0.69
2024-06-06 11:50:32.510,-1654.0,4544.2,-1616.8,132,0.69
2024-06-06 11:50:32.719,-1295.4,2984.4,-1344.6,132,0.69
2024-06-06 11:50:32.932,-1637.1666666666667,3524.1666666666665,-1172.3333333333333,132,0.69
2024-06-06 11:50:33.110,-1050.4,4355.6,-1551.2,131,0.68
2024-06-06 11:50:33.304,-1026.8,3208.8,-707.0,131,0.68
2024-06-06 11:50:33.516,-1946.0,4095.0,-724.3333333333334,131,0.68
2024-06-06 11:50:33.723,-1636.0,3515.6,-1203.2,131,0.68
2024-06-06 11:50:33.920,-1625.4,2951.8,-632.2,131,0.68
2024-06-06 11:50:34.159,-1659.6,4636.2,-1025.2,131,0.68
2024-06-06 11:50:34.308,-953.0,3565.0,-875.5,131,0.68
2024-06-06 11:50:34.534,-1466.0,3559.8,-296.6,131,0.68
2024-06-06 11:50:34.728,-1829.8,4598.4,-1132.4,131,0.68
2024-06-06 11:50:34.969,-1325.3333333333333,2965.6666666666665,-781.6666666666666,131,0.68
2024-06-06 11:50:35.120,-1427.2,3731.0,-881.0,131,0.68
2024-06-06 11:50:35.314,-667.2,4798.6,-977.8,131,0.68
2024-06-06 11:50:35.526,-156.66666666666666,3051.6666666666665,1373.1666666666667,131,0.68
2024-06-06 11:50:35.724,-1127.2,2710.8,3536.4,131,0.68
2024-06-06 11:50:35.960,-1030.4,2989.6,2667.8,131,0.68
2024-06-06 11:50:36.110,180.16666666666666,2223.6666666666665,2497.0,131,0.68
2024-06-06 11:50:36.320,3309.0,1982.2,2300.2,131,0.68
2024-06-06 11:50:36.514,4048.4,2287.6,694.8,136,0.71
2024-06-06 11:50:36.710,4296.4,2643.8,690.2,136,0.71
2024-06-06 11:50:36.924,4993.0,2437.5,548.5,136,0.71
2024-06-06 11:50:37.115,3733.2,1083.8,69.8,136,0.71
2024-06-06 11:50:37.312,3702.0,1200.0,-96.6,136,0.71
2024-06-06 11:50:37.520,4358.0,1651.0,655.5,136,0.71
2024-06-06 11:50:37.825,3279.4,2030.0,765.2,136,0.71
2024-06-06 11:50:37.910,5000.4,2535.2,595.6,136,0.71
2024-06-06 11:50:38.139,4116.333333333333,1319.0,154.16666666666666,136,0.71
2024-06-06 11:50:38.317,3623.4,1125.0,-223.4,136,0.71
2024-06-06 11:50:38.510,4929.0,1570.2,105.0,136,0.71
2024-06-06 11:50:38.721,2782.0,1720.2,843.6,136,0.71
2024-06-06 11:50:38.918,4668.0,2309.6666666666665,712.5,136,0.71
2024-06-06 11:50:39.116,4731.6,1744.0,214.0,136,0.71
2024-06-06 11:50:39.321,3243.6,1077.8,-137.0,136,0.71
2024-06-06 11:50:39.588,4365.833333333333,1508.5,100.83333333333333,136,0.71
2024-06-06 11:50:39.713,3714.8,1627.0,602.8,136,0.71
2024-06-06 11:50:39.907,3799.0,1988.4,524.4,136,0.71
2024-06-06 11:50:40.116,4975.0,2545.4,462.6,136,0.71
2024-06-06 11:50:40.315,3699.3333333333335,1152.1666666666667,231.83333333333334,136,0.71
2024-06-06 11:50:40.521,3805.6,1257.6,-179.4,136,0.71
2024-06-06 11:50:40.718,4805.4,1516.2,241.2,136,0.71
2024-06-06 11:50:40.912,2679.1666666666665,1639.6666666666667,950.8333333333334,136,0.71
2024-06-06 11:50:41.106,4889.4,2557.4,550.8,136,0.71
2024-06-06 11:50:41.316,4370.4,1841.2,95.8,136,0.71
2024-06-06 11:50:41.512,3620.0,998.1666666666666,-159.83333333333334,136,0.71
2024-06-06 11:50:41.708,4693.6,1458.0,204.2,136,0.71
2024-06-06 11:50:41.919,3286.2,1673.2,460.6,136,0.71
2024-06-06 11:50:42.115,4183.5,2246.1666666666665,633.6666666666666,136,0.71
2024-06-06 11:50:42.311,5058.6,2282.4,49.4,136,0.71
2024-06-06 11:50:42.519,3315.0,1162.2,-137.6,136,0.71
2024-06-06 11:50:42.730,4239.8,1259.8,-97.0,136,0.71
2024-06-06 11:50:42.906,4071.8333333333335,1671.3333333333333,412.6666666666667,136,0.71
2024-06-06 11:50:43.130,3460.4,1940.6,543.0,136,0.71
2024-06-06 11:50:43.311,4737.4,2675.0,720.6,136,0.71
2024-06-06 11:50:43.527,4458.666666666667,1486.6666666666667,211.83333333333334,136,0.71
2024-06-06 11:50:43.715,3219.0,1045.8,-129.2,136,0.71
2024-06-06 11:50:43.926,5115.4,1541.0,451.0,136,0.71
2024-06-06 11:50:44.122,3244.5,1914.3333333333333,428.1666666666667,136,0.71
2024-06-06 11:50:44.316,4697.0,2683.8,677.0,136,0.71
2024-06-06 11:50:44.559,5193.0,1982.0,83.0,136,0.71
2024-06-06 11:50:44.723,3533.5,1011.8333333333334,-383.3333333333333,136,0.71
2024-06-06 11:50:44.916,4356.4,1484.4,20.8,136,0.71
2024-06-06 11:50:45.111,4019.0,1595.6,700.0,136,0.71
2024-06-06 11:50:45.398,4044.2,2230.2,669.8,136,0.71
2024-06-06 11:50:45.533,5211.666666666667,2374.5,270.8333333333333,136,0.71
2024-06-06 11:50:45.712,3780.6,1006.4,-100.0,136,0.71
2024-06-06 11:50:45.934,3783.0,1129.8,-235.0,136,0.71
2024-06-06 11:50:46.181,4558.833333333333,1670.5,478.3333333333333,136,0.71
2024-06-06 11:50:46.310,3376.0,2038.2,786.0,136,0.71
2024-06-06 11:50:46.536,4833.4,2558.4,645.6,136,0.71
2024-06-06 11:50:46.759,4719.0,1405.5,65.33333333333333,136,0.71
2024-06-06 11:50:46.935,3324.6,888.0,-222.6,136,0.71
2024-06-06 11:50:47.201,4865.6,1777.0,409.0,137,0.72
2024-06-06 11:50:47.315,3448.8333333333335,1786.1666666666667,489.3333333333333,137,0.72
2024-06-06 11:50:47.529,4726.6,2552.4,535.6,137,0.72
2024-06-06 11:50:47.720,4926.2,1919.6,232.2,137,0.72
2024-06-06 11:50:47.918,3285.6,1023.2,-186.2,137,0.72
2024-06-06 11:50:48.200,4452.666666666667,1400.8333333333333,-15.833333333333334,137,0.72
2024-06-06 11:50:48.335,3491.2,1712.6,552.4,137,0.72
2024-06-06 11:50:48.515,4277.2,2343.2,696.2,137,0.72
2024-06-06 11:50:48.728,5316.5,2261.3333333333335,165.16666666666666,137,0.72
2024-06-06 11:50:48.923,3343.6,964.6,-347.8,137,0.72
2024-06-06 11:50:49.212,4146.0,1191.0,-68.0,137,0.72
2024-06-06 11:50:49.309,4663.8,1747.4,304.8,137,0.72
2024-06-06 11:50:49.526,3553.0,2114.6666666666665,522.6666666666666,137,0.72
2024-06-06 11:50:49.718,4898.0,2694.0,421.8,137,0.72
2024-06-06 11:50:49.957,4755.0,1146.8,57.2,137,0.72
2024-06-06 11:50:50.104,3459.8333333333335,995.6666666666666,-134.66666666666666,137,0.72
2024-06-06 11:50:50.319,5218.2,1737.6,242.4,137,0.72
2024-06-06 11:50:50.527,3031.0,1954.8,574.4,137,0.72
2024-06-06 11:50:50.738,4866.333333333333,2445.3333333333335,714.6666666666666,137,0.72
2024-06-06 11:50:51.001,4610.2,1672.4,100.8,137,0.72
2024-06-06 11:50:51.113,3289.6,983.6,-415.4,137,0.72
2024-06-06 11:50:51.323,4783.6,1648.0,331.4,137,0.72
2024-06-06 11:50:51.516,2986.6666666666665,2087.1666666666665,398.3333333333333,137,0.72
2024-06-06 11:50:51.714,4736.6,2382.8,801.2,137,0.72
2024-06-06 11:50:51.993,5074.6,2065.0,159.6,137,0.72
2024-06-06 11:50:52.132,3351.0,1044.3333333333333,-115.0,137,0.72
2024-06-06 11:50:52.314,4406.4,1204.0,99.8,137,0.72
2024-06-06 11:50:52.542,3809.2,1727.6,467.2,140,0.73
2024-06-06 11:50:52.783,3633.6666666666665,2026.1666666666667,689.1666666666666,140,0.73
2024-06-06 11:50:53.040,4866.2,2483.8,652.6,140,0.73
2024-06-06 11:50:53.118,3954.8,1137.0,246.6,140,0.73
2024-06-06 11:50:53.330,3758.1666666666665,1187.0,-96.83333333333333,140,0.73
2024-06-06 11:50:53.515,4722.0,1670.4,372.2,140,0.73
2024-06-06 11:50:53.723,2745.8,1647.0,815.6,140,0.73
2024-06-06 11:50:53.996,4801.4,2218.6,689.4,140,0.73
2024-06-06 11:50:54.113,4305.666666666667,1644.6666666666667,-133.33333333333334,140,0.73
2024-06-06 11:50:54.376,3340.4,1089.4,-319.2,140,0.73
2024-06-06 11:50:54.523,5013.6,1485.2,303.0,140,0.73
2024-06-06 11:50:54.710,2851.3333333333335,1704.3333333333333,279.5,140,0.73
2024-06-06 11:50:54.991,4613.0,1986.0,508.8,140,0.73
2024-06-06 11:50:55.117,4839.2,1868.0,26.6,140,0.73
2024-06-06 11:50:55.375,3037.5,920.6666666666666,-134.16666666666666,140,0.73
2024-06-06 11:50:55.521,4940.2,1258.6,-261.6,140,0.73
2024-06-06 11:50:55.717,3363.8,1886.0,175.6,140,0.73
2024-06-06 11:50:55.931,3741.3333333333335,1848.5,566.0,140,0.73
2024-06-06 11:50:56.153,4902.4,2275.6,436.8,140,0.73
2024-06-06 11:50:56.332,3196.6,967.2,-361.8,140,0.73
2024-06-06 11:50:56.527,3869.2,1125.6,15.8,140,0.73
2024-06-06 11:50:56.799,4507.166666666667,1750.1666666666667,54.833333333333336,140,0.73
2024-06-06 11:50:56.933,2788.4,1691.2,723.4,140,0.73
2024-06-06 11:50:57.114,4832.4,2255.0,513.6,140,0.73
2024-06-06 11:50:57.321,3979.6666666666665,1479.3333333333333,112.66666666666667,140,0.73
2024-06-06 11:50:57.530,3544.8,1120.0,-174.0,140,0.73
2024-06-06 11:50:57.713,4954.4,1532.6,247.4,140,0.73
2024-06-06 11:50:57.924,2886.6666666666665,1685.1666666666667,548.6666666666666,140,0.73
2024-06-06 11:50:58.132,4658.4,2344.2,528.8,140,0.73
2024-06-06 11:50:58.347,4961.4,2261.6,-102.2,140,0.73
2024-06-06 11:50:58.536,3019.3333333333335,1116.6666666666667,-44.333333333333336,140,0.73
2024-06-06 11:50:58.763,5112.2,1493.0,-151.6,140,0.73
2024-06-06 11:50:58.923,3518.8,1634.6,423.0,140,0.73
2024-06-06 11:50:59.137,3968.2,2132.4,571.4,141,0.74
2024-06-06 11:50:59.316,4894.0,2406.0,117.16666666666667,141,0.74
2024-06-06 11:50:59.605,3629.8,1095.4,-132.6,141,0.74
2024-06-06 11:50:59.706,4299.6,1207.4,-237.0,141,0.74
2024-06-06 11:50:59.918,3873.5,1453.3333333333333,380.3333333333333,141,0.74
2024-06-06 11:51:00.128,3712.0,2170.0,462.2,141,0.74
2024-06-06 11:51:00.321,4836.2,2648.4,360.6,141,0.74
2024-06-06 11:51:00.620,4187.0,1443.4,-30.6,141,0.74
2024-06-06 11:51:00.711,3793.8333333333335,1045.6666666666667,-279.0,141,0.74
2024-06-06 11:51:00.907,4884.0,1349.6,149.4,141,0.74
2024-06-06 11:51:01.117,2655.8,1678.6,779.8,141,0.74
2024-06-06 11:51:01.314,4768.333333333333,2511.3333333333335,675.3333333333334,141,0.74
2024-06-06 11:51:01.505,4622.0,1833.6,147.0,141,0.74
2024-06-06 11:51:01.720,3444.0,1203.2,-306.6,141,0.74
2024-06-06 11:51:01.914,4654.166666666667,1366.3333333333333,151.66666666666666,141,0.74
2024-06-06 11:51:02.134,3223.6,1726.2,418.6,141,0.74
2024-06-06 11:51:02.366,4266.2,2277.0,640.2,141,0.74
2024-06-06 11:51:02.527,5240.8,2485.0,256.6,141,0.74
2024-06-06 11:51:02.710,3649.8333333333335,1514.5,56.666666666666664,141,0.74
2024-06-06 11:51:02.915,4284.0,1088.6,186.2,141,0.74
2024-06-06 11:51:03.127,4088.6,2089.4,279.4,140,0.73
2024-06-06 11:51:03.387,3392.0,1940.5,467.3333333333333,140,0.73
2024-06-06 11:51:03.518,4843.0,2557.4,440.8,140,0.73
2024-06-06 11:51:03.717,3733.4,1303.2,105.0,140,0.73
2024-06-06 11:51:03.939,3583.0,1112.0,-208.83333333333334,140,0.73
2024-06-06 11:51:04.120,5074.6,1538.4,353.6,140,0.73
2024-06-06 11:51:04.379,2565.4,1638.4,753.0,140,0.73
2024-06-06 11:51:04.522,4569.166666666667,2203.8333333333335,584.0,140,0.73
2024-06-06 11:51:04.720,4447.8,1916.0,257.0,140,0.73
2024-06-06 11:51:04.913,3186.0,1146.8,-159.2,140,0.73
2024-06-06 11:51:05.127,4811.8,1288.0,-3.2,140,0.73
2024-06-06 11:51:05.333,3550.5,1539.0,612.3333333333334,140,0.73
2024-06-06 11:51:05.512,3734.0,2029.6,571.0,140,0.73
2024-06-06 11:51:05.725,4884.2,2755.8,418.6,140,0.73
2024-06-06 11:51:05.915,4136.833333333333,1200.6666666666667,36.666666666666664,140,0.73
2024-06-06 11:51:06.110,3671.0,1125.4,-126.8,140,0.73
2024-06-06 11:51:06.324,5054.6,1678.0,346.0,140,0.73
2024-06-06 11:51:06.520,3230.6666666666665,1988.3333333333333,435.5,140,0.73
2024-06-06 11:51:06.727,4693.6,2644.2,592.6,140,0.73
2024-06-06 11:51:06.920,4866.0,1585.6,119.0,140,0.73
2024-06-06 11:51:07.117,3174.5,1018.5,-302.1666666666667,142,0.74
2024-06-06 11:51:07.314,5052.2,1573.0,196.8,142,0.74
2024-06-06 11:51:07.532,3153.4,1936.0,686.2,142,0.74
2024-06-06 11:51:07.795,4226.0,2252.8,604.2,142,0.74
2024-06-06 11:51:07.929,5085.833333333333,2164.0,298.3333333333333,142,0.74
2024-06-06 11:51:08.168,3170.8,956.0,-133.6,142,0.74
2024-06-06 11:51:08.332,4406.2,1305.8,-243.0,142,0.74
2024-06-06 11:51:08.530,3947.3333333333335,1691.1666666666667,581.0,142,0.74
2024-06-06 11:51:08.768,3734.2,1979.0,511.2,142,0.74
2024-06-06 11:51:08.920,4718.4,2748.8,644.8,142,0.74
2024-06-06 11:51:09.125,4316.833333333333,1326.0,-53.666666666666664,142,0.74
2024-06-06 11:51:09.321,3738.0,998.8,-164.8,142,0.74
2024-06-06 11:51:09.516,4994.8,1643.0,222.4,142,0.74
2024-06-06 11:51:09.726,2871.2,1913.6,743.6,142,0.74
2024-06-06 11:51:09.981,4593.333333333333,2565.8333333333335,669.3333333333334,142,0.74
2024-06-06 11:51:10.113,4721.4,1593.2,179.8,142,0.74
2024-06-06 11:51:10.310,3210.2,1023.8,-160.2,142,0.74
2024-06-06 11:51:10.548,4965.833333333333,1394.6666666666667,312.5,142,0.74
2024-06-06 11:51:10.716,3220.4,2040.6,542.0,142,0.74
2024-06-06 11:51:10.912,4402.0,2365.4,445.6,142,0.74
2024-06-06 11:51:11.108,5227.8,2263.2,453.8,142,0.74
2024-06-06 11:51:11.341,3562.5,1029.0,-10.333333333333334,142,0.74
2024-06-06 11:51:11.513,4394.4,1171.4,-236.0,142,0.74
2024-06-06 11:51:11.708,4567.6,1930.0,541.6,142,0.74
2024-06-06 11:51:12.020,3771.6666666666665,2146.0,593.6666666666666,142,0.74
2024-06-06 11:51:12.113,4904.8,2689.4,441.6,142,0.74
2024-06-06 11:51:12.323,4438.4,1311.8,49.2,142,0.74
2024-06-06 11:51:12.532,3526.3333333333335,1011.0,-89.83333333333333,141,0.74
2024-06-06 11:51:12.726,5156.2,1745.8,534.0,141,0.74
2024-06-06 11:51:12.906,3188.2,1859.0,303.4,141,0.74
2024-06-06 11:51:13.171,4811.0,2758.0,564.8333333333334,141,0.74
2024-06-06 11:51:13.315,4430.8,1379.6,218.2,141,0.74
2024-06-06 11:51:13.522,3472.2,1088.0,-220.6,141,0.74
2024-06-06 11:51:13.713,4876.4,1453.0,242.8,141,0.74
2024-06-06 11:51:13.910,3265.1666666666665,1777.3333333333333,499.3333333333333,141,0.74
2024-06-06 11:51:14.169,4559.8,2378.8,509.8,141,0.74
2024-06-06 11:51:14.316,4976.8,2281.4,96.6,141,0.74
2024-06-06 11:51:14.519,3435.3333333333335,1056.5,-132.16666666666666,141,0.74
2024-06-06 11:51:14.720,4689.0,1368.0,-29.4,141,0.74
2024-06-06 11:51:14.918,4070.2,1731.0,351.0,141,0.74
2024-06-06 11:51:15.130,3918.5,2301.1666666666665,508.8333333333333,141,0.74
2024-06-06 11:51:15.360,5468.8,2440.6,486.2,141,0.74
2024-06-06 11:51:15.575,3824.2,1102.0,-125.4,141,0.74
2024-06-06 11:51:15.737,3697.6666666666665,1182.1666666666667,-167.83333333333334,141,0.74
2024-06-06 11:51:15.997,4744.0,3390.0,1251.4,141,0.74
2024-06-06 11:51:16.143,1367.2,4056.2,1657.4,141,0.74
2024-06-06 11:51:16.329,1472.8,3485.6,-306.4,141,0.74
2024-06-06 11:51:16.521,853.3333333333334,2646.1666666666665,331.5,141,0.74
2024-06-06 11:51:16.717,2232.0,3272.4,747.6,141,0.74
2024-06-06 11:51:16.913,4192.0,4091.8,294.4,141,0.74
2024-06-06 11:51:17.121,988.6666666666666,1792.3333333333333,552.0,141,0.74
2024-06-06 11:51:17.317,3190.0,5043.4,1936.2,141,0.74
2024-06-06 11:51:17.514,2539.0,2859.4,-286.2,141,0.74
2024-06-06 11:51:17.724,1601.1666666666667,3218.3333333333335,1108.6666666666667,141,0.74
2024-06-06 11:51:17.918,3657.2,4134.6,395.8,141,0.74
2024-06-06 11:51:18.115,1593.6,1909.0,336.6,141,0.74
2024-06-06 11:51:18.335,2397.5,4204.666666666667,2160.3333333333335,141,0.74
2024-06-06 11:51:18.520,2637.8,2991.4,-126.0,141,0.74
2024-06-06 11:51:18.730,1350.0,2771.4,1121.0,141,0.74
2024-06-06 11:51:18.924,3120.4,4771.4,980.2,141,0.74
2024-06-06 11:51:19.121,2393.8333333333335,2071.5,459.3333333333333,141,0.74
2024-06-06 11:51:19.374,2084.4,3500.6,2152.4,141,0.74
2024-06-06 11:51:19.526,2956.4,3816.8,689.6,141,0.74
2024-06-06 11:51:19.719,1560.5,2382.1666666666665,828.0,141,0.74
2024-06-06 11:51:19.911,2563.0,4789.4,1436.2,141,0.74
2024-06-06 11:51:20.128,3059.8,2674.0,638.4,141,0.74
2024-06-06 11:51:20.317,1277.8,2034.8,878.4,141,0.74
2024-06-06 11:51:20.550,2820.8333333333335,4170.666666666667,2178.3333333333335,141,0.74
2024-06-06 11:51:20.709,2257.6,2603.2,241.2,141,0.74
2024-06-06 11:51:20.951,1769.6,3383.8,1261.6,141,0.74
2024-06-06 11:51:21.114,3696.3333333333335,3796.5,561.0,141,0.74
2024-06-06 11:51:21.392,1308.4,1921.8,740.4,141,0.74
2024-06-06 11:51:21.534,2841.8,4207.2,2534.4,139,0.73
2024-06-06 11:51:21.844,2792.6666666666665,2868.1666666666665,140.33333333333334,139,0.73
2024-06-06 11:51:21.909,1437.4,2988.8,1083.8,139,0.73
2024-06-06 11:51:22.120,3160.2,4620.6,1016.0,139,0.73
2024-06-06 11:51:22.329,2118.3333333333335,2188.5,412.8333333333333,139,0.73
2024-06-06 11:51:22.524,2347.6,3462.4,2198.2,139,0.73
2024-06-06 11:51:22.719,3153.6,3718.8,693.6,139,0.73
2024-06-06 11:51:22.951,1678.0,2308.4,696.0,139,0.73
2024-06-06 11:51:23.254,2281.6666666666665,4206.0,1437.6666666666667,139,0.73
2024-06-06 11:51:23.315,3631.4,3077.4,46.8,139,0.73
2024-06-06 11:51:23.529,1177.4,2004.8,829.6,139,0.73
2024-06-06 11:51:23.723,2770.3333333333335,3988.3333333333335,1964.0,139,0.73
2024-06-06 11:51:23.919,2816.0,2824.6,76.6,139,0.73
2024-06-06 11:51:24.116,1590.2,3111.2,1036.0,139,0.73
2024-06-06 11:51:24.355,3473.0,4007.3333333333335,728.3333333333334,139,0.73
2024-06-06 11:51:24.522,1729.4,2186.2,820.4,139,0.73
2024-06-06 11:51:24.714,2150.4,3317.2,2351.6,139,0.73
2024-06-06 11:51:24.969,3343.8333333333335,3502.6666666666665,962.6666666666666,139,0.73
2024-06-06 11:51:25.119,1298.8,2155.2,1262.4,139,0.73
2024-06-06 11:51:25.314,2669.4,4452.2,2009.6,139,0.73
2024-06-06 11:51:25.524,3280.0,2653.6,521.8,139,0.73
2024-06-06 11:51:25.719,1461.8333333333333,1998.5,1543.1666666666667,139,0.73
2024-06-06 11:51:26.001,2987.8,4257.6,2218.6,139,0.73
2024-06-06 11:51:26.126,2426.6,2783.0,413.8,139,0.73
2024-06-06 11:51:26.320,1775.3333333333333,3274.8333333333335,1353.8333333333333,139,0.73
2024-06-06 11:51:26.567,3717.0,3996.2,580.2,139,0.73
2024-06-06 11:51:26.725,1581.6,1974.2,933.0,139,0.73
2024-06-06 11:51:26.981,2469.5,3521.8333333333335,2711.3333333333335,139,0.73
2024-06-06 11:51:27.114,3041.2,3226.2,312.4,139,0.73
2024-06-06 11:51:27.340,1370.4,2341.2,1084.6,139,0.73
2024-06-06 11:51:27.578,3127.6666666666665,4201.0,1577.5,138,0.72
2024-06-06 11:51:27.776,2564.2,2060.6,590.8,138,0.72
2024-06-06 11:51:27.925,1959.6,2629.0,1854.6,138,0.72
2024-06-06 11:51:28.123,3188.0,3884.6,1573.4,138,0.72
2024-06-06 11:51:28.332,1967.1666666666667,2425.6666666666665,751.1666666666666,138,0.72
2024-06-06 11:51:28.524,2265.8,3809.4,1708.0,138,0.72
2024-06-06 11:51:28.797,3678.6,3536.6,419.6,138,0.72
2024-06-06 11:51:28.916,1510.3333333333333,1963.6666666666667,1089.8333333333333,138,0.72
2024-06-06 11:51:29.120,2941.6,4155.0,2415.4,138,0.72
2024-06-06 11:51:29.316,2934.0,2824.4,536.0,138,0.72
2024-06-06 11:51:29.511,1609.0,2492.6,1478.4,138,0.72
2024-06-06 11:51:29.728,2686.5,4325.0,2213.3333333333335,138,0.72
2024-06-06 11:51:29.920,1526.2,3711.2,50.4,138,0.72
2024-06-06 11:51:30.114,-1792.8,2494.0,540.8,138,0.72
2024-06-06 11:51:30.325,170.83333333333334,3817.8333333333335,3012.8333333333335,138,0.72
2024-06-06 11:51:30.561,1717.6,3375.6,2963.2,138,0.72
2024-06-06 11:51:30.776,1408.8,4308.8,1237.2,138,0.72
2024-06-06 11:51:30.911,-431.1666666666667,-151.66666666666666,3427.8333333333335,138,0.72
2024-06-06 11:51:31.120,-152.4,-1022.8,3693.0,138,0.72
2024-06-06 11:51:31.315,185.6,-1563.8,4786.6,138,0.72
2024-06-06 11:51:31.555,-72.0,-395.4,4013.8,138,0.72
2024-06-06 11:51:31.719,-136.66666666666666,-991.8333333333334,3965.0,138,0.72
2024-06-06 11:51:31.917,-1008.4,1419.2,4698.8,138,0.72
2024-06-06 11:51:32.124,-1236.0,52.8,3101.4,138,0.72
2024-06-06 11:51:32.321,-1236.8333333333333,-173.33333333333334,3959.1666666666665,138,0.72
2024-06-06 11:51:32.514,-2382.6,2207.6,2825.4,138,0.72
2024-06-06 11:51:32.744,-1119.2,48.0,2787.2,138,0.72
2024-06-06 11:51:32.916,-993.8333333333334,-798.1666666666666,4921.166666666667,138,0.72
2024-06-06 11:51:33.112,-684.2,-794.4,3702.0,138,0.72
2024-06-06 11:51:33.312,-956.4,-1450.0,3068.8,138,0.72
2024-06-06 11:51:33.529,-2789.1666666666665,1854.0,2910.8333333333335,138,0.72
2024-06-06 11:51:33.729,-2447.2,2587.4,-618.6,138,0.72
2024-06-06 11:51:33.922,-3484.8,1434.0,-755.4,138,0.72
2024-06-06 11:51:34.134,-3974.6,2570.8,-1620.6,138,0.72
2024-06-06 11:51:34.355,-2908.3333333333335,1501.1666666666667,-1170.0,138,0.72
2024-06-06 11:51:34.522,-3957.4,971.0,-1659.4,138,0.72
2024-06-06 11:51:34.718,-3838.4,1085.0,-2005.0,138,0.72
2024-06-06 11:51:34.933,-3061.5,754.1666666666666,-854.5,138,0.72
2024-06-06 11:51:35.126,-4481.4,1566.6,-1300.4,138,0.72
2024-06-06 11:51:35.396,-3176.2,1657.4,-1344.2,138,0.72
2024-06-06 11:51:35.510,-2905.3333333333335,1705.6666666666667,-950.0,138,0.72
2024-06-06 11:51:35.720,-4439.0,1875.4,-2004.8,138,0.72
2024-06-06 11:51:35.930,-1877.2,1468.4,-782.8,138,0.72
2024-06-06 11:51:36.132,1492.3333333333333,1955.3333333333333,1016.0,138,0.72
2024-06-06 11:51:36.367,6787.2,3642.8,524.8,138,0.72
2024-06-06 11:51:36.530,2777.6,3226.0,-221.2,138,0.72
2024-06-06 11:51:36.715,3935.0,2050.0,418.2,138,0.72
2024-06-06 11:51:36.924,4399.5,2066.6666666666665,153.33333333333334,138,0.72
2024-06-06 11:51:37.135,3033.8,1388.2,-115.8,138,0.72
2024-06-06 11:51:37.312,4391.4,1378.0,90.8,138,0.72
2024-06-06 11:51:37.524,3582.3333333333335,1769.3333333333333,898.1666666666666,136,0.71
2024-06-06 11:51:37.759,3139.6,1651.8,846.2,136,0.71
2024-06-06 11:51:37.943,4682.0,2152.0,585.8,136,0.71
2024-06-06 11:51:38.120,3817.6666666666665,1648.0,300.5,136,0.71
2024-06-06 11:51:38.323,3054.2,1193.8,72.6,136,0.71
2024-06-06 11:51:38.545,4714.0,1609.8,634.2,136,0.71
2024-06-06 11:51:38.735,3396.4,1497.6,740.6,136,0.71
2024-06-06 11:51:38.935,3653.3333333333335,1638.6666666666667,849.1666666666666,136,0.71
2024-06-06 11:51:39.115,4626.8,2124.6,840.8,136,0.71
2024-06-06 11:51:39.322,3606.2,1439.6,226.8,136,0.71
2024-06-06 11:51:39.532,3762.1666666666665,972.3333333333334,58.833333333333336,136,0.71
2024-06-06 11:51:39.731,4808.2,1433.4,692.0,136,0.71
2024-06-06 11:51:39.924,2818.0,1495.4,837.2,136,0.71
2024-06-06 11:51:40.122,4074.0,1927.0,909.8333333333334,136,0.71
2024-06-06 11:51:40.329,4838.2,2109.2,693.8,136,0.71
2024-06-06 11:51:40.507,3281.0,828.6,448.0,136,0.71
2024-06-06 11:51:40.715,4304.4,1161.6,405.4,136,0.71
2024-06-06 11:51:40.927,4198.666666666667,1661.1666666666667,612.0,136,0.71
2024-06-06 11:51:41.109,2938.6,1636.6,736.2,136,0.71
2024-06-06 11:51:41.316,4590.6,2587.6,857.8,136,0.71
2024-06-06 11:51:41.515,4347.5,1287.8333333333333,425.6666666666667,136,0.71
2024-06-06 11:51:41.741,3690.6,1039.4,93.2,136,0.71
2024-06-06 11:51:41.921,4836.8,1359.4,504.4,136,0.71
2024-06-06 11:51:42.116,3114.1666666666665,1727.8333333333333,634.6666666666666,136,0.71
2024-06-06 11:51:42.373,4672.6,2250.6,812.8,136,0.71
2024-06-06 11:51:42.535,4891.6,1950.2,433.0,136,0.71
2024-06-06 11:51:42.761,3013.8,1194.0,50.4,136,0.71
2024-06-06 11:51:42.909,4258.0,1396.5,251.16666666666666,136,0.71
2024-06-06 11:51:43.136,3968.2,1634.2,606.4,136,0.71
2024-06-06 11:51:43.444,3622.4,1949.0,690.2,136,0.71
2024-06-06 11:51:43.527,4990.166666666667,2238.3333333333335,637.1666666666666,136,0.71
2024-06-06 11:51:43.765,3902.2,1016.6,144.2,136,0.71
2024-06-06 11:51:43.960,3402.8,1028.8,-166.4,136,0.71
2024-06-06 11:51:44.121,4906.5,1404.5,685.6666666666666,136,0.71
2024-06-06 11:51:44.325,2629.6,1704.2,659.8,136,0.71
2024-06-06 11:51:44.527,3899.0,1900.0,670.0,137,0.72
2024-06-06 11:51:44.528,4915.5,2210.75,579.0,137,0.72
2024-06-06 11:51:44.724,4590.833333333333,1359.1666666666667,382.8333333333333,137,0.72
2024-06-06 11:51:44.972,3164.2,1116.4,52.0,137,0.72
2024-06-06 11:51:45.115,4472.8,1478.0,319.0,137,0.72
2024-06-06 11:51:45.339,3597.8,1714.8,755.2,137,0.72
2024-06-06 11:51:45.519,3516.8333333333335,1841.6666666666667,776.1666666666666,137,0.72
2024-06-06 11:51:45.713,5037.6,2001.2,710.4,137,0.72
2024-06-06 11:51:45.938,3172.6,1041.6,189.2,137,0.72
2024-06-06 11:51:46.137,3961.3333333333335,1171.8333333333333,50.666666666666664,137,0.72
2024-06-06 11:51:46.328,4465.6,1471.2,242.8,137,0.72
2024-06-06 11:51:46.598,2768.8,1622.0,842.8,137,0.72
2024-06-06 11:51:46.736,4490.0,1935.5,817.8333333333334,137,0.72
2024-06-06 11:51:46.914,4271.2,1586.8,457.0,137,0.72
2024-06-06 11:51:47.126,3088.0,1116.8,42.8,137,0.72
2024-06-06 11:51:47.336,4611.333333333333,1373.6666666666667,389.6666666666667,137,0.72
2024-06-06 11:51:47.534,3218.2,1512.6,735.2,137,0.72
2024-06-06 11:51:47.796,3876.0,1725.4,867.4,137,0.72
2024-06-06 11:51:47.919,4629.0,2202.8,640.6,137,0.72
2024-06-06 11:51:48.141,3834.6666666666665,1251.3333333333333,250.0,137,0.72
2024-06-06 11:51:48.323,3772.6,1052.2,62.4,137,0.72
2024-06-06 11:51:48.520,4652.6,1383.4,355.0,135,0.71
2024-06-06 11:51:48.735,3138.0,1753.5,1043.0,135,0.71
2024-06-06 11:51:48.922,4769.0,2093.2,890.4,135,0.71
2024-06-06 11:51:49.137,4875.4,1488.2,535.8,135,0.71
2024-06-06 11:51:49.389,2836.8333333333335,955.5,71.33333333333333,135,0.71
2024-06-06 11:51:49.525,5182.8,1535.4,363.8,135,0.71
2024-06-06 11:51:49.720,3474.0,1471.4,813.8,135,0.71
2024-06-06 11:51:49.913,3778.8,1725.8,988.6,135,0.71
2024-06-06 11:51:50.172,4777.0,2072.8333333333335,686.1666666666666,135,0.71
2024-06-06 11:51:50.321,3762.0,1110.25,185.25,135,0.71
2024-06-06 11:51:50.322,3117.0,1059.0,-64.0,135,0.71
2024-06-06 11:51:50.515,3815.8,1095.2,15.4,135,0.71
2024-06-06 11:51:50.709,4349.833333333333,1380.0,566.5,135,0.71
2024-06-06 11:51:50.921,2993.8,1663.4,938.4,135,0.71
2024-06-06 11:51:51.200,4773.4,2240.8,857.4,135,0.71
2024-06-06 11:51:51.327,4640.8,1603.6,328.8,135,0.71
2024-06-06 11:51:51.533,3286.0,1022.8333333333334,-23.5,135,0.71
2024-06-06 11:51:51.811,4934.6,1429.4,370.6,135,0.71
2024-06-06 11:51:51.941,3235.2,1449.8,786.4,135,0.71
2024-06-06 11:51:52.164,4217.5,1937.1666666666667,743.1666666666666,135,0.71
2024-06-06 11:51:52.316,4936.2,2017.4,506.2,135,0.71
2024-06-06 11:51:52.525,3415.6,1012.8,71.2,135,0.71
2024-06-06 11:51:52.724,4169.166666666667,1304.6666666666667,153.83333333333334,135,0.71
2024-06-06 11:51:52.916,3712.6,2086.4,596.2,135,0.71
2024-06-06 11:51:53.253,2841.6,1889.6,587.6,135,0.71
2024-06-06 11:51:53.321,4816.0,2509.1666666666665,227.33333333333334,135,0.71
2024-06-06 11:51:53.515,3606.8,1234.4,255.6,131,0.68
2024-06-06 11:51:53.721,3518.8,1172.0,-15.2,131,0.68
2024-06-06 11:51:53.997,5014.0,1335.2,275.8,131,0.68
2024-06-06 11:51:54.110,2577.8333333333335,1556.5,735.0,131,0.68
2024-06-06 11:51:54.337,4678.2,2081.8,750.8,131,0.68
2024-06-06 11:51:54.568,4800.4,1830.8,214.2,131,0.68
2024-06-06 11:51:54.730,3210.8333333333335,985.0,21.0,131,0.68
2024-06-06 11:51:55.002,4757.6,1595.2,200.6,131,0.68
2024-06-06 11:51:55.135,3183.0,1844.0,615.8,131,0.68
2024-06-06 11:51:55.310,3728.5,1780.8333333333333,784.3333333333334,131,0.68
2024-06-06 11:51:55.526,4650.6,2214.0,512.8,131,0.68
2024-06-06 11:51:55.739,3660.2,1240.8,173.6,131,0.68
2024-06-06 11:51:56.038,3996.8333333333335,1157.3333333333333,44.0,131,0.68
2024-06-06 11:51:56.119,4361.8,1445.0,578.2,131,0.68
2024-06-06 11:51:56.329,2729.4,1541.4,646.8,131,0.68
2024-06-06 11:51:56.512,4624.0,2046.5,765.1666666666666,131,0.68
2024-06-06 11:51:56.721,4093.6,1607.2,313.2,131,0.68
2024-06-06 11:51:57.046,3046.0,1160.0,102.0,131,0.68
2024-06-06 11:51:57.047,3230.75,1481.0,-67.0,131,0.68
2024-06-06 11:51:57.110,4958.8,832.2,333.2,131,0.68
2024-06-06 11:51:57.324,3143.5,1260.3333333333333,521.5,131,0.68
2024-06-06 11:51:57.514,4175.8,1778.4,746.8,131,0.68
2024-06-06 11:51:57.713,4887.0,2147.0,605.8,131,0.68
2024-06-06 11:51:58.010,3418.0,1072.8333333333333,168.0,131,0.68
2024-06-06 11:51:58.116,4574.2,1177.0,1.4,131,0.68
2024-06-06 11:51:58.313,4018.0,1347.0,577.8,131,0.68
2024-06-06 11:51:58.522,3195.8333333333335,1681.8333333333333,745.3333333333334,131,0.68
2024-06-06 11:51:58.735,4887.2,2255.4,749.8,131,0.68
2024-06-06 11:51:58.926,4061.2,1327.6,243.0,131,0.68
2024-06-06 11:51:59.122,3509.0,1022.4,-48.0,131,0.68
2024-06-06 11:51:59.321,4680.666666666667,1292.3333333333333,331.6666666666667,131,0.68
2024-06-06 11:51:59.528,2864.2,1532.0,687.0,131,0.68
2024-06-06 11:51:59.740,4329.8,1976.6,902.2,131,0.68
2024-06-06 11:51:59.920,4779.666666666667,1927.3333333333333,497.3333333333333,131,0.68
2024-06-06 11:52:00.132,3351.8,1013.0,-13.0,131,0.68
2024-06-06 11:52:00.322,4498.0,990.8,23.6,131,0.68
2024-06-06 11:52:00.529,4017.6,1391.6,897.0,131,0.68
2024-06-06 11:52:00.775,3349.0,1825.6666666666667,714.6666666666666,131,0.68
2024-06-06 11:52:00.910,4875.6,2303.8,830.2,131,0.68
2024-06-06 11:52:01.136,4097.6,1352.6,234.8,131,0.68
2024-06-06 11:52:01.312,3534.1666666666665,1064.0,-64.5,131,0.68
2024-06-06 11:52:01.510,4764.4,1527.0,517.8,131,0.68
2024-06-06 11:52:01.788,2950.2,1644.6,758.6,131,0.68
2024-06-06 11:52:01.934,4443.333333333333,2050.5,735.6666666666666,131,0.68
2024-06-06 11:52:02.123,4605.8,1894.8,427.4,131,0.68
2024-06-06 11:52:02.334,3155.6,1031.8,34.8,131,0.68
2024-06-06 11:52:02.529,4467.666666666667,1280.5,234.16666666666666,131,0.68
2024-06-06 11:52:02.724,3862.0,1485.6,677.0,131,0.68
2024-06-06 11:52:02.916,3219.0,1718.2,740.8,131,0.68
2024-06-06 11:52:03.115,4743.6,2352.8,689.8,131,0.68
2024-06-06 11:52:03.328,4327.666666666667,1334.3333333333333,218.33333333333334,131,0.68
2024-06-06 11:52:03.586,3502.4,1008.4,-61.8,131,0.68
2024-06-06 11:52:03.713,5042.4,1376.6,473.8,131,0.68
2024-06-06 11:52:03.939,2895.1666666666665,1606.1666666666667,828.1666666666666,131,0.68
2024-06-06 11:52:04.122,4917.0,2250.4,784.6,131,0.68
2024-06-06 11:52:04.375,4656.4,1632.8,535.6,131,0.68
2024-06-06 11:52:04.526,3130.6666666666665,1090.3333333333333,28.5,131,0.68
2024-06-06 11:52:04.720,4800.2,1243.8,381.2,131,0.68
2024-06-06 11:52:04.912,3584.2,1430.0,706.4,131,0.68
2024-06-06 11:52:05.122,3780.0,1759.3333333333333,1027.6666666666667,131,0.68
2024-06-06 11:52:05.321,5033.4,2181.6,701.2,131,0.68
2024-06-06 11:52:05.513,3721.6,1104.2,234.8,131,0.68
2024-06-06 11:52:05.720,3672.6,1035.8,160.8,131,0.68
2024-06-06 11:52:05.919,4543.5,1376.5,659.0,131,0.68
2024-06-06 11:52:06.158,3061.6,1613.2,845.4,131,0.68
2024-06-06 11:52:06.339,4571.0,2244.2,953.8,131,0.68
2024-06-06 11:52:06.520,4401.5,1648.8333333333333,430.6666666666667,131,0.68
2024-06-06 11:52:06.715,3393.6,1014.6,23.4,131,0.68
2024-06-06 11:52:06.963,4530.2,1338.8,478.2,131,0.68
2024-06-06 11:52:07.135,3453.0,1488.6666666666667,651.8333333333334,131,0.68
2024-06-06 11:52:07.395,4053.8,1913.6,830.6,131,0.68
2024-06-06 11:52:07.539,5148.2,2235.0,705.0,131,0.68
2024-06-06 11:52:07.722,3534.0,1075.6666666666667,-8.5,131,0.68
2024-06-06 11:52:07.930,3903.2,1144.0,76.6,131,0.68
2024-06-06 11:52:08.210,4580.6,1504.6,844.6,129,0.67
2024-06-06 11:52:08.318,2910.8,1602.0,790.2,129,0.67
2024-06-06 11:52:08.517,4694.833333333333,1982.5,873.8333333333334,129,0.67
2024-06-06 11:52:08.723,4077.4,1603.6,335.8,129,0.67
2024-06-06 11:52:08.966,3314.8,1063.0,-125.4,129,0.67
2024-06-06 11:52:09.172,4669.333333333333,1212.8333333333333,337.0,129,0.67
2024-06-06 11:52:09.327,3331.2,1368.0,791.8,129,0.67
2024-06-06 11:52:09.519,3686.8,1693.6,843.4,129,0.67
2024-06-06 11:52:09.717,4779.2,2211.0,798.6,129,0.67
2024-06-06 11:52:09.928,3987.0,1160.3333333333333,336.1666666666667,129,0.67
2024-06-06 11:52:10.134,3456.6,1015.2,-13.0,129,0.67
2024-06-06 11:52:10.317,4990.0,1490.2,516.6,129,0.67
2024-06-06 11:52:10.510,3055.1666666666665,1574.3333333333333,1025.5,129,0.67
2024-06-06 11:52:10.760,4698.0,2273.8,805.2,129,0.67
2024-06-06 11:52:10.916,4752.6,1761.6,412.4,129,0.67
2024-06-06 11:52:11.109,3215.5,962.0,79.5,129,0.67
2024-06-06 11:52:11.320,4652.2,1272.8,383.2,129,0.67
2024-06-06 11:52:11.530,3744.0,1521.4,789.8,129,0.67
2024-06-06 11:52:11.721,3886.0,1987.0,866.4,129,0.67
2024-06-06 11:52:12.003,4877.5,2095.5,615.1666666666666,129,0.67
2024-06-06 11:52:12.115,3510.8,1004.6,142.6,129,0.67
2024-06-06 11:52:12.308,3624.6,1099.0,44.0,129,0.67
2024-06-06 11:52:12.520,4625.333333333333,1467.0,720.6666666666666,129,0.67
2024-06-06 11:52:12.716,2993.4,1684.2,700.8,129,0.67
2024-06-06 11:52:12.972,4639.0,1950.2,851.8,129,0.67
2024-06-06 11:52:13.119,4244.0,1338.5,353.5,129,0.67
2024-06-06 11:52:13.314,2838.4,1031.4,248.6,129,0.67
2024-06-06 11:52:13.526,4937.4,1630.4,310.2,129,0.67
2024-06-06 11:52:13.736,3515.0,1392.0,729.1666666666666,129,0.67
2024-06-06 11:52:14.014,3251.6,1148.8,828.0,129,0.67
2024-06-06 11:52:14.128,4965.4,1338.4,238.8,129,0.67
2024-06-06 11:52:14.318,3814.4,618.0,65.8,129,0.67
2024-06-06 11:52:14.527,3877.5,381.0,-212.33333333333334,130,0.68
2024-06-06 11:52:14.726,4607.6,52.4,-473.8,130,0.68
2024-06-06 11:52:15.004,3468.6,-29.0,171.0,130,0.68
2024-06-06 11:52:15.114,4063.0,920.8333333333334,650.0,130,0.68
2024-06-06 11:52:15.325,4992.2,1338.4,56.4,130,0.68
2024-06-06 11:52:15.520,3068.6,828.4,310.8,130,0.68
2024-06-06 11:52:15.798,4512.833333333333,1296.5,-35.0,130,0.68
2024-06-06 11:52:15.940,3780.0,1046.6,636.6,130,0.68
2024-06-06 11:52:16.119,3146.4,977.0,373.6,130,0.68
2024-06-06 11:52:16.316,5252.833333333333,665.6666666666666,-96.0,130,0.68
2024-06-06 11:52:16.524,3225.8,368.8,228.4,130,0.68
2024-06-06 11:52:16.793,3972.8,1055.2,-98.2,130,0.68
2024-06-06 11:52:16.929,5156.2,150.2,-322.6,130,0.68
2024-06-06 11:52:17.126,3077.5,484.8333333333333,335.5,130,0.68
2024-06-06 11:52:17.387,4262.2,1222.0,307.8,130,0.68
2024-06-06 11:52:17.529,4780.6,1952.0,233.6,130,0.68
2024-06-06 11:52:17.794,3061.6666666666665,943.3333333333334,8.5,130,0.68
2024-06-06 11:52:17.915,4871.4,1336.4,42.6,130,0.68
2024-06-06 11:52:18.113,3536.2,1538.6,536.0,131,0.68
2024-06-06 11:52:18.323,3539.0,1466.1666666666667,664.5,131,0.68
2024-06-06 11:52:18.521,4863.2,1919.8,576.4,131,0.68
2024-06-06 11:52:18.799,3503.0,1175.2,-180.8,131,0.68
2024-06-06 11:52:18.922,3824.4,956.0,306.6,131,0.68
2024-06-06 11:52:19.121,4678.0,1553.3333333333333,247.66666666666666,131,0.68
2024-06-06 11:52:19.328,2610.4,1463.6,626.8,131,0.68
2024-06-06 11:52:19.631,4402.4,1765.8,789.0,131,0.68
2024-06-06 11:52:19.717,4292.166666666667,1832.8333333333333,180.5,131,0.68
2024-06-06 11:52:19.912,3214.0,857.0,124.4,131,0.68
2024-06-06 11:52:20.112,4739.8,1382.0,629.6,131,0.68
2024-06-06 11:52:20.320,3451.8333333333335,1180.6666666666667,575.3333333333334,131,0.68
2024-06-06 11:52:20.578,3439.4,1545.2,918.8,131,0.68
2024-06-06 11:52:20.728,5023.6,2297.0,911.8,131,0.68
2024-06-06 11:52:20.922,3676.4,1199.4,275.0,131,0.68
2024-06-06 11:52:21.111,4064.0,1013.3333333333334,7.666666666666667,131,0.68
2024-06-06 11:52:21.337,4514.6,1205.2,646.4,131,0.68
2024-06-06 11:52:21.520,2726.0,1495.4,1307.0,134,0.7
2024-06-06 11:52:21.717,4266.5,2063.8333333333335,626.0,134,0.7
2024-06-06 11:52:21.907,4633.8,1993.6,340.2,134,0.7
2024-06-06 11:52:22.136,3474.0,941.8,276.4,134,0.7
2024-06-06 11:52:22.314,4491.333333333333,1272.8333333333333,402.6666666666667,134,0.7
2024-06-06 11:52:22.567,3611.4,1418.4,608.2,134,0.7
2024-06-06 11:52:22.735,3789.0,1869.8,707.0,134,0.7
2024-06-06 11:52:22.931,4685.2,2257.8,614.4,134,0.7
2024-06-06 11:52:23.125,3875.1666666666665,1264.6666666666667,74.0,134,0.7
2024-06-06 11:52:23.462,4215.8,919.4,-115.4,134,0.7
2024-06-06 11:52:23.516,4982.0,1294.0,263.8,134,0.7
2024-06-06 11:52:23.726,2844.8333333333335,1604.5,490.1666666666667,134,0.7
2024-06-06 11:52:23.952,4994.4,1338.8,157.8,134,0.7
2024-06-06 11:52:24.128,4063.4,205.8,127.2,134,0.7
2024-06-06 11:52:24.331,3770.8333333333335,600.6666666666666,-287.0,134,0.7
2024-06-06 11:52:24.521,4888.2,990.4,-139.0,134,0.7
2024-06-06 11:52:24.714,3293.4,-250.2,357.2,134,0.7
2024-06-06 11:52:24.920,4146.0,1298.6666666666667,384.3333333333333,134,0.7
2024-06-06 11:52:25.119,4544.2,1945.0,427.2,134,0.7
2024-06-06 11:52:25.314,3149.6,1041.6,247.0,134,0.7
2024-06-06 11:52:25.527,4765.833333333333,839.6666666666666,16.833333333333332,134,0.7
2024-06-06 11:52:25.719,3715.6,872.4,563.2,134,0.7
2024-06-06 11:52:25.944,3274.8,1450.6,702.8,134,0.7
2024-06-06 11:52:26.170,4740.4,2208.2,748.4,134,0.7
2024-06-06 11:52:26.335,4102.0,1357.0,339.0,134,0.7
2024-06-06 11:52:26.514,3598.6,980.2,46.8,134,0.7
2024-06-06 11:52:26.739,4860.2,1348.6,540.8,134,0.7
2024-06-06 11:52:27.027,3055.5,1488.1666666666667,735.5,133,0.7
2024-06-06 11:52:27.189,4369.2,2003.2,827.2,133,0.7
2024-06-06 11:52:27.321,4727.0,2066.2,445.8,133,0.7
2024-06-06 11:52:27.534,3445.6666666666665,941.6666666666666,51.833333333333336,133,0.7
2024-06-06 11:52:27.728,4599.2,1115.0,280.0,133,0.7
2024-06-06 11:52:28.009,3648.6,1492.6,650.8,133,0.7
2024-06-06 11:52:28.119,3584.8333333333335,1729.6666666666667,820.8333333333334,133,0.7
2024-06-06 11:52:28.331,4794.0,2262.4,710.8,133,0.7
2024-06-06 11:52:28.526,3984.2,1148.2,309.6,133,0.7
2024-06-06 11:52:28.719,3276.6,954.6,114.8,133,0.7
2024-06-06 11:52:29.000,4922.166666666667,1451.0,455.3333333333333,133,0.7
2024-06-06 11:52:29.125,2631.2,1496.6,733.6,133,0.7
2024-06-06 11:52:29.353,4685.6,1826.2,884.4,133,0.7
2024-06-06 11:52:29.515,4444.833333333333,1840.6666666666667,19.333333333333332,133,0.7
2024-06-06 11:52:29.726,3212.8,1053.8,-111.4,133,0.7
2024-06-06 11:52:29.997,4720.4,1177.0,276.8,133,0.7
2024-06-06 11:52:30.116,3754.0,1385.2,477.4,133,0.7
2024-06-06 11:52:30.382,3526.1666666666665,1757.3333333333333,733.8333333333334,133,0.7
2024-06-06 11:52:30.515,4615.2,2238.0,603.0,133,0.7
2024-06-06 11:52:30.776,4063.8,1213.0,101.2,133,0.7
2024-06-06 11:52:30.924,3642.6666666666665,1013.1666666666666,277.8333333333333,133,0.7
2024-06-06 11:52:31.120,4964.8,1572.0,209.6,133,0.7
2024-06-06 11:52:31.316,2823.6,1460.4,918.2,133,0.7
2024-06-06 11:52:31.527,4518.333333333333,2125.5,909.3333333333334,133,0.7
2024-06-06 11:52:31.721,4727.0,1664.6,389.0,133,0.7
2024-06-06 11:52:31.912,3264.8,1008.0,19.2,133,0.7
2024-06-06 11:52:32.107,4377.8,1157.2,231.0,130,0.68
2024-06-06 11:52:32.318,3814.6666666666665,1562.0,903.0,130,0.68
2024-06-06 11:52:32.515,3730.2,1764.2,956.2,130,0.68
2024-06-06 11:52:32.793,4799.0,2180.2,724.8,130,0.68
2024-06-06 11:52:32.935,3919.8333333333335,1170.1666666666667,22.833333333333332,130,0.68
2024-06-06 11:52:33.113,3556.6,1013.6,88.0,130,0.68
2024-06-06 11:52:33.307,4889.0,1464.8,473.8,130,0.68
2024-06-06 11:52:33.545,3004.3333333333335,1528.0,680.0,130,0.68
2024-06-06 11:52:33.726,4596.6,2120.0,903.6,130,0.68
2024-06-06 11:52:33.926,4611.6,1722.0,334.8,130,0.68
2024-06-06 11:52:34.118,3439.0,1019.3333333333334,-32.166666666666664,130,0.68
2024-06-06 11:52:34.330,4936.4,1194.6,335.0,130,0.68
2024-06-06 11:52:34.586,3358.2,1401.6,639.4,130,0.68
2024-06-06 11:52:34.720,3848.6,1724.4,760.2,130,0.68
2024-06-06 11:52:34.932,4837.5,2249.6666666666665,568.0,130,0.68
2024-06-06 11:52:35.127,3808.0,1089.4,25.4,130,0.68
2024-06-06 11:52:35.332,3958.8,1001.8,45.0,130,0.68
2024-06-06 11:52:35.531,4352.0,1446.5,382.6666666666667,130,0.68
2024-06-06 11:52:35.739,3001.4,2335.8,448.6,130,0.68
2024-06-06 11:52:35.933,4638.2,2032.4,745.8,130,0.68
2024-06-06 11:52:36.179,4203.833333333333,1439.5,118.0,130,0.68
2024-06-06 11:52:36.384,3190.2,919.8,-35.6,130,0.68
2024-06-06 11:52:36.518,4663.4,1443.8,418.8,130,0.68
2024-06-06 11:52:36.714,3529.6666666666665,1477.1666666666667,375.8333333333333,130,0.68
2024-06-06 11:52:36.927,3926.8,1666.6,694.4,130,0.68
2024-06-06 11:52:37.120,4812.8,2017.8,636.6,127,0.66
2024-06-06 11:52:37.333,3426.0,1039.8,102.0,127,0.66
2024-06-06 11:52:37.522,4086.1666666666665,1118.0,85.0,127,0.66
2024-06-06 11:52:37.734,4292.8,1385.4,483.6,127,0.66
2024-06-06 11:52:37.915,2798.4,1395.6,661.2,127,0.66
2024-06-06 11:52:38.195,4608.833333333333,1955.3333333333333,735.0,127,0.66
2024-06-06 11:52:38.376,4100.8,1605.2,302.2,127,0.66
2024-06-06 11:52:38.514,3014.0,741.4,-319.0,127,0.66
2024-06-06 11:52:38.740,4925.2,1352.2,654.8,127,0.66
2024-06-06 11:52:38.741,4806.0,847.0,853.0,127,0.66
2024-06-06 11:52:38.935,3165.4,1151.6,407.4,127,0.66
2024-06-06 11:52:39.212,3313.0,1491.2,509.8,127,0.66
2024-06-06 11:52:39.323,4871.0,1735.8,525.6,127,0.66
2024-06-06 11:52:39.534,3998.6666666666665,1111.1666666666667,634.8333333333334,127,0.66
2024-06-06 11:52:39.717,3954.2,1052.2,59.2,127,0.66
2024-06-06 11:52:39.924,4277.8,1593.6,-351.4,127,0.66
2024-06-06 11:52:40.199,3647.0,1506.3333333333333,230.16666666666666,127,0.66
2024-06-06 11:52:40.330,3624.2,1659.2,848.0,127,0.66
2024-06-06 11:52:40.525,4200.6,1805.2,850.0,127,0.66
2024-06-06 11:52:40.722,3715.6,1489.4,464.2,127,0.66
2024-06-06 11:52:40.912,4160.666666666667,1151.1666666666667,424.6666666666667,127,0.66
2024-06-06 11:52:41.195,4689.8,286.2,339.4,127,0.66
2024-06-06 11:52:41.349,3232.0,581.0,751.4,127,0.66
2024-06-06 11:52:41.514,3605.6666666666665,1167.1666666666667,1010.5,127,0.66
2024-06-06 11:52:41.710,4855.6,803.6,403.4,127,0.66
2024-06-06 11:52:41.990,3761.4,1096.0,-58.6,127,0.66
2024-06-06 11:52:42.178,3869.5,1120.5,-174.16666666666666,127,0.66
2024-06-06 11:52:42.310,5003.0,652.4,157.0,127,0.66
2024-06-06 11:52:42.535,3425.6,-233.8,1159.8,126,0.66
2024-06-06 11:52:42.730,3675.5,1092.8333333333333,947.0,126,0.66
2024-06-06 11:52:42.938,4482.2,2202.2,899.4,126,0.66
2024-06-06 11:52:43.119,4654.2,990.4,569.0,126,0.66
2024-06-06 11:52:43.350,3314.4,612.6,506.4,126,0.66
2024-06-06 11:52:43.525,5337.333333333333,1267.8333333333333,192.0,126,0.66
2024-06-06 11:52:43.803,2797.4,1718.2,388.8,126,0.66
2024-06-06 11:52:43.948,4989.0,2561.8,870.4,126,0.66
2024-06-06 11:52:44.127,5226.166666666667,1622.1666666666667,357.8333333333333,126,0.66
2024-06-06 11:52:44.320,3441.4,848.8,-428.8,126,0.66
2024-06-06 11:52:44.515,4357.6,1018.8,62.8,126,0.66
2024-06-06 11:52:44.793,4194.666666666667,1632.1666666666667,1123.6666666666667,126,0.66
2024-06-06 11:52:44.922,4422.8,2339.2,955.2,126,0.66
2024-06-06 11:52:45.112,5429.4,2148.4,222.4,126,0.66
2024-06-06 11:52:45.338,3645.8333333333335,994.3333333333334,-17.166666666666668,126,0.66
2024-06-06 11:52:45.520,4339.6,790.6,175.0,126,0.66
2024-06-06 11:52:45.745,4394.4,1468.2,848.4,126,0.66
2024-06-06 11:52:46.056,3371.8,1900.2,958.0,126,0.66
2024-06-06 11:52:46.134,4999.833333333333,2375.8333333333335,837.1666666666666,126,0.66
2024-06-06 11:52:46.315,4383.8,1135.8,263.6,126,0.66
2024-06-06 11:52:46.524,3654.4,688.8,97.2,126,0.66
2024-06-06 11:52:46.737,4791.0,1260.5,626.5,126,0.66
2024-06-06 11:52:46.913,3289.0,1681.8,721.0,126,0.66
2024-06-06 11:52:47.121,4790.4,2589.6,981.2,126,0.66
2024-06-06 11:52:47.336,4811.0,2555.0,705.0,126,0.66
2024-06-06 11:52:47.337,4705.6,1361.6,153.8,126,0.66
2024-06-06 11:52:47.612,3714.6,923.2,-210.0,126,0.66
2024-06-06 11:52:47.726,4645.4,1116.4,574.4,126,0.66
2024-06-06 11:52:47.920,3771.0,1469.8333333333333,734.3333333333334,126,0.66
2024-06-06 11:52:48.117,4424.2,2364.2,927.6,126,0.66
2024-06-06 11:52:48.325,5161.0,2220.4,400.6,126,0.66
2024-06-06 11:52:48.604,4478.6,1077.6,-157.2,126,0.66
2024-06-06 11:52:48.715,4499.5,341.6666666666667,167.0,126,0.66
2024-06-06 11:52:48.939,4229.0,1207.4,651.2,126,0.66
2024-06-06 11:52:49.121,4181.6,2148.2,658.8,126,0.66
2024-06-06 11:52:49.314,4721.0,2374.0,1036.0,126,0.66
2024-06-06 11:52:49.315,5267.6,2641.4,514.8,126,0.66
2024-06-06 11:52:49.524,5130.4,3228.8,-1164.4,126,0.66
2024-06-06 11:52:49.775,2630.4,2451.4,-168.4,126,0.66
2024-06-06 11:52:49.912,7.6,4637.0,794.8,126,0.66
2024-06-06 11:52:50.124,101.5,2482.3333333333335,1473.6666666666667,126,0.66
2024-06-06 11:52:50.314,-1807.6,4419.0,1599.0,126,0.66
2024-06-06 11:52:50.538,-943.8,3934.8,1572.2,126,0.66
2024-06-06 11:52:50.707,1412.0,2062.6666666666665,1261.5,126,0.66
2024-06-06 11:52:50.915,6454.0,2229.2,482.0,126,0.66
2024-06-06 11:52:51.109,3334.0,1969.8,223.6,126,0.66
2024-06-06 11:52:51.364,4163.833333333333,2527.5,799.5,126,0.66
2024-06-06 11:52:51.517,5646.2,2190.8,386.4,123,0.64
2024-06-06 11:52:51.710,4050.6,817.8,-180.8,123,0.64
2024-06-06 11:52:51.906,4247.6,874.2,-21.6,123,0.64
2024-06-06 11:52:52.116,4581.0,1554.3333333333333,544.0,123,0.64
2024-06-06 11:52:52.324,4264.4,2379.8,526.6,123,0.64
2024-06-06 11:52:52.521,5162.2,2913.0,652.6,123,0.64
2024-06-06 11:52:52.717,4911.0,1111.6666666666667,-123.16666666666667,123,0.64
2024-06-06 11:52:52.912,4206.4,811.6,-397.6,123,0.64
2024-06-06 11:52:53.121,4684.4,1296.6,372.4,123,0.64
2024-06-06 11:52:53.394,4354.833333333333,2122.3333333333335,942.0,123,0.64
2024-06-06 11:52:53.511,4889.0,2811.4,835.4,123,0.64
2024-06-06 11:52:53.720,5552.2,1262.2,-26.4,123,0.64
2024-06-06 11:52:53.916,3732.3333333333335,721.6666666666666,-367.6666666666667,123,0.64
2024-06-06 11:52:54.173,5284.2,1207.8,420.6,123,0.64
2024-06-06 11:52:54.324,4128.0,2055.4,527.0,123,0.64
2024-06-06 11:52:54.516,4630.166666666667,2875.5,726.0,123,0.64
2024-06-06 11:52:54.712,5882.4,1719.0,168.6,123,0.64
2024-06-06 11:52:54.921,4029.2,780.6,-429.2,123,0.64
2024-06-06 11:52:55.116,4570.6,1006.6,85.6,123,0.64
2024-06-06 11:52:55.328,4900.666666666667,1614.1666666666667,449.6666666666667,123,0.64
2024-06-06 11:52:55.537,4666.6,2805.0,808.8,123,0.64
2024-06-06 11:52:55.717,5828.4,2520.6,342.2,123,0.64
2024-06-06 11:52:55.972,4662.0,709.0,-364.8333333333333,123,0.64
2024-06-06 11:52:56.122,3901.8,863.4,45.2,123,0.64
2024-06-06 11:52:56.317,5081.0,1545.6,802.4,123,0.64
2024-06-06 11:52:56.512,4478.166666666667,2252.3333333333335,680.6666666666666,123,0.64
2024-06-06 11:52:56.723,4990.6,2835.2,375.8,123,0.64
2024-06-06 11:52:56.947,5436.0,1158.8,-55.0,123,0.64
2024-06-06 11:52:57.171,3857.5,440.3333333333333,-97.66666666666667,122,0.64
2024-06-06 11:52:57.325,5275.2,1357.2,488.8,122,0.64
2024-06-06 11:52:57.532,4060.8,2062.0,452.6,122,0.64
2024-06-06 11:52:57.713,4712.8,3077.6,784.8,122,0.64
2024-06-06 11:52:57.922,5523.666666666667,1565.8333333333333,33.833333333333336,122,0.64
2024-06-06 11:52:58.133,3765.0,866.0,-299.2,122,0.64
2024-06-06 11:52:58.328,4866.4,1017.6,375.4,122,0.64
2024-06-06 11:52:58.522,4537.833333333333,1883.3333333333333,414.8333333333333,122,0.64
2024-06-06 11:52:58.716,4555.8,2994.8,718.6,122,0.64
2024-06-06 11:52:58.927,5300.0,2249.4,145.6,122,0.64
2024-06-06 11:52:59.123,4893.4,1026.4,-258.8,122,0.64
2024-06-06 11:52:59.317,4326.333333333333,696.5,224.16666666666666,122,0.64
2024-06-06 11:52:59.512,4332.6,1554.0,678.0,122,0.64
2024-06-06 11:52:59.790,4741.6,2397.2,824.2,122,0.64
2024-06-06 11:52:59.918,5232.666666666667,2473.1666666666665,381.5,122,0.64
2024-06-06 11:53:00.176,4457.0,1007.4,-209.8,122,0.64
2024-06-06 11:53:00.309,4328.6,762.8,-62.6,122,0.64
2024-06-06 11:53:00.561,4129.166666666667,1327.8333333333333,857.0,122,0.64
2024-06-06 11:53:00.711,4552.4,2387.4,787.6,122,0.64
2024-06-06 11:53:00.968,4671.6,2985.2,936.0,122,0.64
2024-06-06 11:53:01.117,5075.2,1403.0,46.6,122,0.64
2024-06-06 11:53:01.313,4267.333333333333,797.3333333333334,-194.83333333333334,122,0.64
2024-06-06 11:53:01.572,4368.8,1317.2,542.2,122,0.64
2024-06-06 11:53:01.716,3831.2,1595.0,1344.0,122,0.64
2024-06-06 11:53:01.911,4959.833333333333,2779.5,1034.5,122,0.64
2024-06-06 11:53:02.122,5241.4,1393.0,-186.8,119,0.62
2024-06-06 11:53:02.315,4858.0,1010.6,-447.2,119,0.62
2024-06-06 11:53:02.514,4325.333333333333,505.1666666666667,644.6666666666666,119,0.62
2024-06-06 11:53:02.721,3389.8,1381.8,1224.6,119,0.62
2024-06-06 11:53:02.933,5166.0,2379.0,1120.6,119,0.62
2024-06-06 11:53:03.112,4600.166666666667,1697.5,413.6666666666667,119,0.62
2024-06-06 11:53:03.306,4066.2,1043.6,-97.4,119,0.62
2024-06-06 11:53:03.532,4757.6,1064.6,575.6,119,0.62
2024-06-06 11:53:03.712,3255.8,1143.4,909.2,119,0.62
2024-06-06 11:53:03.923,4592.833333333333,1896.6666666666667,701.5,119,0.62
2024-06-06 11:53:04.116,4774.8,2003.0,955.2,119,0.62
2024-06-06 11:53:04.313,4414.2,1165.2,155.4,119,0.62
2024-06-06 11:53:04.522,3494.3333333333335,862.8333333333334,-54.666666666666664,119,0.62
2024-06-06 11:53:04.777,4948.0,1346.4,688.8,119,0.62
2024-06-06 11:53:04.912,3619.2,1496.8,833.8,119,0.62
2024-06-06 11:53:05.167,4164.166666666667,2277.8333333333335,793.1666666666666,119,0.62
2024-06-06 11:53:05.333,5509.8,1743.8,591.0,119,0.62
2024-06-06 11:53:05.528,4141.2,744.2,430.4,119,0.62
2024-06-06 11:53:05.738,3521.1666666666665,828.3333333333334,416.1666666666667,119,0.62
2024-06-06 11:53:05.916,5290.6,1574.0,654.4,119,0.62
2024-06-06 11:53:06.190,3449.6,1761.6,535.8,119,0.62
2024-06-06 11:53:06.326,4447.8,2611.8,1032.6,119,0.62
2024-06-06 11:53:06.563,4999.5,1546.0,312.8333333333333,119,0.62
2024-06-06 11:53:06.711,3769.2,966.2,95.2,119,0.62
2024-06-06 11:53:06.926,4330.2,1104.4,725.8,119,0.62
2024-06-06 11:53:07.118,3863.0,1520.8333333333333,639.5,119,0.62
2024-06-06 11:53:07.329,4515.6,2482.2,711.2,119,0.62
2024-06-06 11:53:07.525,4855.4,2483.2,474.4,119,0.62
2024-06-06 11:53:07.719,4409.333333333333,986.0,6.5,119,0.62
2024-06-06 11:53:08.010,4388.6,728.8,262.8,119,0.62
2024-06-06 11:53:08.127,4375.8,1408.4,671.2,119,0.62
2024-06-06 11:53:08.333,4149.8,2203.4,553.0,119,0.62
2024-06-06 11:53:08.609,4790.0,2842.8333333333335,462.3333333333333,122,0.64
2024-06-06 11:53:08.738,5353.4,1181.4,-207.2,122,0.64
2024-06-06 11:53:08.917,3969.6,780.4,-109.8,122,0.64
2024-06-06 11:53:09.132,4637.333333333333,1277.6666666666667,664.3333333333334,122,0.64
2024-06-06 11:53:09.323,4451.0,1937.0,956.0,122,0.64
2024-06-06 11:53:09.324,4110.25,2168.5,260.0,122,0.64
2024-06-06 11:53:09.523,4644.8,2927.2,728.2,122,0.64
2024-06-06 11:53:09.715,5359.833333333333,1778.3333333333333,74.0,122,0.64
2024-06-06 11:53:09.930,4013.8,917.8,-96.4,122,0.64
2024-06-06 11:53:10.117,4057.8,981.4,714.8,122,0.64
2024-06-06 11:53:10.312,4234.0,1748.4,559.8,122,0.64
2024-06-06 11:53:10.567,4632.333333333333,2539.3333333333335,682.3333333333334,122,0.64
2024-06-06 11:53:10.719,4883.4,2604.4,368.4,122,0.64
2024-06-06 11:53:10.911,4880.6,1223.4,126.6,122,0.64
2024-06-06 11:53:11.125,4361.5,549.6666666666666,252.16666666666666,122,0.64
2024-06-06 11:53:11.317,4194.0,1446.4,529.6,122,0.64
2024-06-06 11:53:11.563,4766.6,2438.0,592.2,122,0.64
2024-06-06 11:53:11.708,4992.0,2825.0,415.5,122,0.64
2024-06-06 11:53:11.919,5007.2,1185.6,-63.4,122,0.64
2024-06-06 11:53:12.113,4600.6,642.6,-101.8,122,0.64
2024-06-06 11:53:12.383,4190.8,1226.8,765.0,122,0.64
2024-06-06 11:53:12.524,4545.666666666667,2407.6666666666665,642.5,122,0.64
2024-06-06 11:53:12.717,4465.4,3083.0,150.6,122,0.64
2024-06-06 11:53:12.907,5548.2,1483.4,-36.6,122,0.64
2024-06-06 11:53:13.147,4024.5,748.1666666666666,170.16666666666666,122,0.64
2024-06-06 11:53:13.357,4739.8,1098.2,431.0,122,0.64
2024-06-06 11:53:13.522,4236.8,1924.0,510.8,122,0.64
2024-06-06 11:53:13.721,4647.5,3033.6666666666665,946.0,122,0.64
2024-06-06 11:53:13.927,5695.0,1715.8,3.8,122,0.64
2024-06-06 11:53:14.165,4212.0,786.4,-292.2,122,0.64
2024-06-06 11:53:14.318,4377.666666666667,903.6666666666666,602.5,122,0.64
2024-06-06 11:53:14.511,4481.8,1803.8,695.4,122,0.64
2024-06-06 11:53:14.724,4669.6,2849.4,864.2,122,0.64
2024-06-06 11:53:14.918,5711.8,2500.4,287.0,122,0.64
2024-06-06 11:53:15.176,4405.0,975.3333333333334,-192.33333333333334,122,0.64
2024-06-06 11:53:15.322,4490.4,621.8,352.8,122,0.64
2024-06-06 11:53:15.520,4439.0,1415.4,844.6,123,0.64
2024-06-06 11:53:15.757,4750.0,2527.5,459.3333333333333,123,0.64
2024-06-06 11:53:15.921,5096.8,2777.6,515.8,123,0.64
2024-06-06 11:53:16.194,4612.8,1070.2,190.8,123,0.64
2024-06-06 11:53:16.357,4156.333333333333,811.8333333333334,215.66666666666666,123,0.64
2024-06-06 11:53:16.522,4292.0,1384.2,708.8,123,0.64
2024-06-06 11:53:16.736,4163.8,2194.0,791.6,123,0.64
2024-06-06 11:53:16.927,5104.333333333333,2658.3333333333335,594.1666666666666,123,0.64
2024-06-06 11:53:17.125,4564.0,1157.0,-29.2,123,0.64
2024-06-06 11:53:17.370,3910.6,847.6,-169.6,123,0.64
2024-06-06 11:53:17.517,4918.6,1192.2,521.4,123,0.64
2024-06-06 11:53:17.721,3711.5,1829.8333333333333,815.6666666666666,123,0.64
2024-06-06 11:53:17.975,4782.2,2834.8,868.2,123,0.64
2024-06-06 11:53:18.113,5331.0,1539.4,276.2,123,0.64
2024-06-06 11:53:18.320,3948.5,709.5,-62.5,123,0.64
2024-06-06 11:53:18.516,4936.4,1085.8,381.0,123,0.64
2024-06-06 11:53:18.775,3852.8,1916.0,521.4,123,0.64
2024-06-06 11:53:18.952,4826.5,2779.0,814.0,123,0.64
2024-06-06 11:53:19.116,5477.6,1809.4,299.8,123,0.64
2024-06-06 11:53:19.311,3736.8,788.8,-179.8,123,0.64
2024-06-06 11:53:19.521,4461.6,1001.2,120.2,123,0.64
2024-06-06 11:53:19.777,4236.333333333333,1635.0,652.1666666666666,123,0.64
2024-06-06 11:53:19.912,4614.4,2489.6,829.2,123,0.64
2024-06-06 11:53:20.124,5378.6,2561.6,641.6,123,0.64
2024-06-06 11:53:20.318,4396.666666666667,989.8333333333334,-56.0,123,0.64
2024-06-06 11:53:20.575,4195.6,930.4,23.8,123,0.64
2024-06-06 11:53:20.707,4597.0,1460.2,779.4,123,0.64
2024-06-06 11:53:20.934,4243.4,2204.6,714.4,123,0.64
2024-06-06 11:53:21.111,5358.333333333333,2682.6666666666665,703.0,123,0.64
2024-06-06 11:53:21.308,4488.0,1031.4,-17.6,123,0.64
2024-06-06 11:53:21.517,4027.8,791.6,-229.4,123,0.64
2024-06-06 11:53:21.711,4740.666666666667,1308.0,440.5,123,0.64
2024-06-06 11:53:21.907,4213.0,2269.4,690.8,123,0.64
2024-06-06 11:53:22.116,4698.0,3001.6,806.6,123,0.64
2024-06-06 11:53:22.327,5365.666666666667,1472.6666666666667,-71.5,123,0.64
2024-06-06 11:53:22.525,3870.2,670.4,-174.2,123,0.64
2024-06-06 11:53:22.734,4971.2,1113.2,470.8,123,0.64
2024-06-06 11:53:22.913,4166.0,2077.8333333333335,618.8333333333334,123,0.64
2024-06-06 11:53:23.137,4812.8,3031.6,709.0,123,0.64
2024-06-06 11:53:23.323,5609.0,1713.4,81.0,123,0.64
2024-06-06 11:53:23.572,3999.0,786.2,-310.8,123,0.64
2024-06-06 11:53:23.736,4683.5,971.3333333333334,348.3333333333333,123,0.64
2024-06-06 11:53:23.919,3917.0,1789.4,609.2,123,0.64
2024-06-06 11:53:24.144,4982.0,2611.4,880.2,123,0.64
2024-06-06 11:53:24.321,5085.333333333333,2123.6666666666665,432.0,123,0.64
2024-06-06 11:53:24.517,4053.6,920.6,-127.4,123,0.64
2024-06-06 11:53:24.712,4536.4,720.2,143.8,123,0.64
2024-06-06 11:53:24.922,4238.166666666667,1506.3333333333333,681.8333333333334,123,0.64
2024-06-06 11:53:25.120,4496.4,2431.4,890.2,123,0.64
2024-06-06 11:53:25.374,5334.2,2539.6,511.4,123,0.64
2024-06-06 11:53:25.526,4510.666666666667,1065.0,3.0,123,0.64
2024-06-06 11:53:25.719,4278.2,524.6,0.2,123,0.64
2024-06-06 11:53:25.913,4796.2,1540.0,464.0,123,0.64
2024-06-06 11:53:26.121,4279.6,2063.2,551.4,123,0.64
2024-06-06 11:53:26.319,4655.0,3107.0,1237.0,123,0.64
2024-06-06 11:53:26.320,5130.8,2701.0,743.0,123,0.64
2024-06-06 11:53:26.513,5034.0,1185.4,-5.8,123,0.64
2024-06-06 11:53:26.727,3673.4,761.4,-245.0,123,0.64
2024-06-06 11:53:26.917,5030.333333333333,1126.0,356.8333333333333,123,0.64
2024-06-06 11:53:27.127,4015.8,2024.6,776.2,123,0.64
2024-06-06 11:53:27.382,4699.2,2884.8,1151.0,123,0.64
2024-06-06 11:53:27.520,5697.833333333333,1613.0,26.833333333333332,123,0.64
2024-06-06 11:53:27.727,3824.0,581.4,-273.4,123,0.64
2024-06-06 11:53:27.927,4748.0,866.6,312.6,123,0.64
2024-06-06 11:53:28.118,4333.5,1740.0,744.6666666666666,123,0.64
2024-06-06 11:53:28.312,4749.8,2559.2,1257.4,123,0.64
2024-06-06 11:53:28.522,5600.2,2328.6,550.8,123,0.64
2024-06-06 11:53:28.719,4608.666666666667,934.3333333333334,-283.0,123,0.64
2024-06-06 11:53:28.720,3674.5,496.0,-259.5,123,0.64
2024-06-06 11:53:28.910,4078.3333333333335,732.0,14.5,123,0.64
2024-06-06 11:53:29.182,4838.6,1781.2,499.6,123,0.64
2024-06-06 11:53:29.317,4336.4,2324.2,864.8,123,0.64
2024-06-06 11:53:29.512,5412.5,2362.6666666666665,591.1666666666666,123,0.64
2024-06-06 11:53:29.722,4254.0,278.8,86.2,123,0.64
2024-06-06 11:53:29.925,3879.8,1625.8,-471.4,123,0.64
2024-06-06 11:53:30.114,4484.2,1055.0,197.4,123,0.64
2024-06-06 11:53:30.325,4336.166666666667,2123.1666666666665,922.6666666666666,123,0.64
2024-06-06 11:53:30.520,5163.2,2787.4,694.8,123,0.64
2024-06-06 11:53:30.713,4762.4,1236.4,-47.4,123,0.64
2024-06-06 11:53:30.922,4188.166666666667,652.6666666666666,-275.3333333333333,123,0.64
2024-06-06 11:53:31.179,4812.6,1078.0,418.8,123,0.64
2024-06-06 11:53:31.318,3787.8,1828.2,845.8,123,0.64
2024-06-06 11:53:31.507,4935.333333333333,2811.6666666666665,712.8333333333334,124,0.65
2024-06-06 11:53:31.718,5127.6,1292.0,48.0,124,0.65
2024-06-06 11:53:31.989,4011.0,639.8,-312.6,124,0.65
2024-06-06 11:53:32.122,5359.6,976.8,477.6,124,0.65
2024-06-06 11:53:32.316,3524.3333333333335,1585.8333333333333,473.5,124,0.65
2024-06-06 11:53:32.528,4742.2,2747.2,823.0,124,0.65
2024-06-06 11:53:32.723,5385.0,1800.4,424.0,124,0.65
2024-06-06 11:53:32.920,3790.1666666666665,850.6666666666666,-38.5,124,0.65
2024-06-06 11:53:33.117,4895.4,1045.4,318.6,124,0.65
2024-06-06 11:53:33.324,3841.8,1648.6,557.8,124,0.65
2024-06-06 11:53:33.520,4555.5,2373.8333333333335,795.0,124,0.65
2024-06-06 11:53:33.744,5319.6,2066.0,437.8,124,0.65
2024-06-06 11:53:33.999,3917.0,960.2,-0.6,124,0.65
2024-06-06 11:53:34.117,4509.5,795.3333333333334,70.16666666666667,124,0.65
2024-06-06 11:53:34.312,4417.0,1411.2,569.8,124,0.65
2024-06-06 11:53:34.529,4183.2,2289.6,774.0,124,0.65
2024-06-06 11:53:34.780,5232.666666666667,2495.1666666666665,522.8333333333334,124,0.65
2024-06-06 11:53:34.978,4447.4,1028.8,-62.2,124,0.65
2024-06-06 11:53:35.125,4176.2,400.2,-248.0,124,0.65
2024-06-06 11:53:35.347,4941.8,1194.0,646.0,124,0.65
2024-06-06 11:53:35.513,3971.1666666666665,2020.5,927.8333333333334,124,0.65
2024-06-06 11:53:35.765,4719.6,2815.6,820.6,124,0.65
2024-06-06 11:53:35.917,5368.0,1410.0,74.8,124,0.65
2024-06-06 11:53:36.111,3764.0,815.6666666666666,-111.16666666666667,124,0.65
2024-06-06 11:53:36.325,5083.0,993.6,1064.0,124,0.65
2024-06-06 11:53:36.530,3529.4,1770.8,783.0,124,0.65
2024-06-06 11:53:36.817,4077.5,2629.3333333333335,662.8333333333334,124,0.65
2024-06-06 11:53:36.937,6142.8,2012.8,501.8,124,0.65
2024-06-06 11:53:37.121,3798.2,761.6,32.4,120,0.63
2024-06-06 11:53:37.330,5085.5,1034.6666666666667,237.5,120,0.63
2024-06-06 11:53:37.531,4433.2,1996.0,384.6,120,0.63
2024-06-06 11:53:37.749,4667.0,3012.6,484.6,120,0.63
2024-06-06 11:53:37.937,5790.6,2257.8,221.8,120,0.63
2024-06-06 11:53:38.122,4222.333333333333,878.3333333333334,-220.0,120,0.63
2024-06-06 11:53:38.318,4542.6,1042.4,8.8,120,0.63
2024-06-06 11:53:38.585,5090.5,1340.0,393.5,120,0.63
2024-06-06 11:53:38.586,3882.6666666666665,1587.6666666666667,859.6666666666666,120,0.63
2024-06-06 11:53:38.782,4726.0,2572.0,967.0,120,0.63
2024-06-06 11:53:38.918,5362.8,2264.2,386.4,120,0.63
2024-06-06 11:53:39.114,4363.4,965.6,-170.2,120,0.63
2024-06-06 11:53:39.336,4103.6,832.8,-153.2,120,0.63
2024-06-06 11:53:39.593,4433.5,1330.8333333333333,669.8333333333334,120,0.63
2024-06-06 11:53:39.729,4303.2,2319.0,777.6,120,0.63
2024-06-06 11:53:39.926,4471.0,2834.0,997.0,120,0.63
2024-06-06 11:53:39.927,5103.5,2885.0,595.0,120,0.63
2024-06-06 11:53:40.123,5193.0,1228.8333333333333,-34.666666666666664,120,0.63
2024-06-06 11:53:40.386,3723.4,694.4,-160.8,120,0.63
2024-06-06 11:53:40.522,5196.6,1193.0,410.2,120,0.63
2024-06-06 11:53:40.719,4307.333333333333,2304.6666666666665,648.8333333333334,120,0.63
2024-06-06 11:53:40.914,4863.8,2943.0,725.2,120,0.63
2024-06-06 11:53:41.127,5879.0,1495.8,59.0,120,0.63
2024-06-06 11:53:41.317,3648.4,713.8,-342.6,120,0.63
2024-06-06 11:53:41.519,4777.5,1120.5,400.0,120,0.63
2024-06-06 11:53:41.722,4395.2,2015.6,555.0,120,0.63
2024-06-06 11:53:41.919,4730.2,2793.8,888.2,120,0.63
2024-06-06 11:53:42.114,5755.333333333333,1909.8333333333333,279.6666666666667,120,0.63
2024-06-06 11:53:42.322,3905.0,928.4,-322.6,120,0.63
2024-06-06 11:53:42.593,4281.8,867.4,-17.4,120,0.63
2024-06-06 11:53:42.721,4661.166666666667,1655.5,631.8333333333334,120,0.63
2024-06-06 11:53:42.969,4693.2,2791.4,944.6,120,0.63
2024-06-06 11:53:43.118,5791.6,2504.4,424.4,120,0.63
2024-06-06 11:53:43.315,4488.333333333333,903.5,-146.33333333333334,120,0.63
2024-06-06 11:53:43.523,3850.4,706.0,-96.4,120,0.63
2024-06-06 11:53:43.718,5554.2,1631.8,764.2,120,0.63
2024-06-06 11:53:43.913,3982.8,2308.4,794.4,120,0.63
2024-06-06 11:53:44.122,5247.0,2668.1666666666665,956.3333333333334,120,0.63
2024-06-06 11:53:44.324,5401.4,1195.2,-101.4,120,0.63
2024-06-06 11:53:44.512,3389.2,255.2,-128.2,120,0.63
2024-06-06 11:53:44.724,5513.166666666667,1224.8333333333333,410.8333333333333,120,0.63
2024-06-06 11:53:44.918,4064.4,2113.8,512.0,120,0.63
2024-06-06 11:53:45.193,4655.4,2916.2,814.0,120,0.63
2024-06-06 11:53:45.322,5811.5,1567.6666666666667,194.5,120,0.63
2024-06-06 11:53:45.534,3704.4,614.4,-364.2,120,0.63
2024-06-06 11:53:45.717,4585.4,883.0,187.6,120,0.63
2024-06-06 11:53:45.923,4554.0,1730.1666666666667,614.1666666666666,120,0.63
2024-06-06 11:53:46.242,4599.2,2711.8,910.0,120,0.63
2024-06-06 11:53:46.329,5646.0,2286.8,309.4,120,0.63
2024-06-06 11:53:46.524,4337.2,989.8,-188.4,120,0.63
2024-06-06 11:53:46.716,4117.333333333333,780.8333333333334,104.0,120,0.63
2024-06-06 11:53:46.934,4979.4,1757.4,750.2,120,0.63
2024-06-06 11:53:47.124,4386.4,2341.8,731.8,120,0.63
2024-06-06 11:53:47.322,5156.833333333333,2640.5,494.8333333333333,120,0.63
2024-06-06 11:53:47.526,4751.6,976.4,94.4,120,0.63
2024-06-06 11:53:47.723,4160.2,1050.4,-4.4,120,0.63
2024-06-06 11:53:48.013,3926.6666666666665,1801.1666666666667,959.6666666666666,119,0.62
2024-06-06 11:53:48.130,3797.4,2237.8,931.2,119,0.62
2024-06-06 11:53:48.322,4844.8,2850.4,730.8,119,0.62
2024-06-06 11:53:48.532,4832.0,1267.1666666666667,244.5,119,0.62
2024-06-06 11:53:48.713,4249.4,875.8,23.0,119,0.62
2024-06-06 11:53:48.973,4625.4,1093.6,315.2,119,0.62
2024-06-06 11:53:49.117,3915.2,1948.6,848.8,119,0.62
2024-06-06 11:53:49.313,4615.833333333333,2682.6666666666665,1040.1666666666667,119,0.62
2024-06-06 11:53:49.527,5735.8,1657.6,134.8,119,0.62
2024-06-06 11:53:49.716,3809.4,764.6,-338.6,119,0.62
2024-06-06 11:53:49.972,4615.666666666667,963.5,352.1666666666667,119,0.62
2024-06-06 11:53:50.127,4393.2,1686.6,622.6,119,0.62
2024-06-06 11:53:50.321,4604.2,2599.8,830.2,119,0.62
2024-06-06 11:53:50.513,5600.0,2518.8,451.6,119,0.62
2024-06-06 11:53:50.723,4450.833333333333,809.5,-310.0,119,0.62
2024-06-06 11:53:50.920,4275.4,704.2,68.4,119,0.62
2024-06-06 11:53:51.123,4643.0,1334.2,625.6,119,0.62
2024-06-06 11:53:51.325,4504.833333333333,2349.8333333333335,859.6666666666666,119,0.62
2024-06-06 11:53:51.519,5407.4,2585.6,481.2,119,0.62
2024-06-06 11:53:51.712,4473.4,989.6,-62.8,119,0.62
2024-06-06 11:53:51.924,3999.8333333333335,749.8333333333334,-91.16666666666667,119,0.62
2024-06-06 11:53:52.117,5089.6,1091.2,484.6,119,0.62
2024-06-06 11:53:52.313,3774.6,1999.0,837.0,119,0.62
2024-06-06 11:53:52.523,4799.6,2782.4,973.0,119,0.62
2024-06-06 11:53:52.778,5348.0,1500.5,-0.5,119,0.62
2024-06-06 11:53:52.913,3787.4,685.6,-384.6,119,0.62
2024-06-06 11:53:53.124,5082.0,751.2,461.0,119,0.62
2024-06-06 11:53:53.336,4052.8333333333335,1702.3333333333333,817.3333333333334,119,0.62
2024-06-06 11:53:53.527,4900.6,2667.6,1015.4,119,0.62
2024-06-06 11:53:53.852,5711.6,1751.8,78.0,119,0.62
2024-06-06 11:53:53.920,4043.6666666666665,799.3333333333334,-364.6666666666667,119,0.62
2024-06-06 11:53:54.117,4654.4,929.6,244.2,119,0.62
2024-06-06 11:53:54.321,3944.2,1506.8,1033.8,119,0.62
2024-06-06 11:53:54.516,4808.166666666667,2352.3333333333335,1237.1666666666667,119,0.62
2024-06-06 11:53:54.713,5444.2,2016.0,275.4,119,0.62
2024-06-06 11:53:54.922,4168.0,965.4,-265.6,119,0.62
2024-06-06 11:53:55.122,4112.0,618.6,43.8,119,0.62
2024-06-06 11:53:55.314,4741.166666666667,1324.3333333333333,899.1666666666666,119,0.62
2024-06-06 11:53:55.587,4164.2,2300.4,1024.8,119,0.62
2024-06-06 11:53:55.720,4847.0,2648.0,611.6,119,0.62
2024-06-06 11:53:55.943,5811.0,1337.6666666666667,-267.8333333333333,119,0.62
2024-06-06 11:53:56.122,2926.0,-461.0,-299.2,119,0.62
2024-06-06 11:53:56.377,6183.4,1227.6,728.4,119,0.62
2024-06-06 11:53:56.541,3600.6666666666665,1711.1666666666667,940.0,119,0.62
2024-06-06 11:53:56.722,4420.4,2026.0,1098.0,119,0.62
2024-06-06 11:53:56.917,5911.0,1842.2,864.6,119,0.62
2024-06-06 11:53:57.183,3579.0,503.0,624.0,119,0.62
2024-06-06 11:53:57.328,4412.2,1130.6,102.4,119,0.62
2024-06-06 11:53:57.579,4813.4,1626.6,480.2,119,0.62
2024-06-06 11:53:57.727,3925.4,1967.2,352.8,119,0.62
2024-06-06 11:53:57.923,5061.5,2730.0,499.8333333333333,119,0.62
2024-06-06 11:53:58.120,4586.8,1089.0,-90.0,119,0.62
2024-06-06 11:53:58.328,4005.8,1001.2,-173.0,119,0.62
2024-06-06 11:53:58.554,4379.166666666667,1100.6666666666667,626.1666666666666,117,0.61
2024-06-06 11:53:58.716,3648.6,1917.0,882.6,117,0.61
2024-06-06 11:53:58.914,4708.8,2563.8,922.6,117,0.61
2024-06-06 11:53:59.161,4809.0,1648.1666666666667,-175.66666666666666,117,0.61
2024-06-06 11:53:59.319,4186.2,796.8,-305.2,117,0.61
2024-06-06 11:53:59.514,5167.6,628.6,533.4,117,0.61
2024-06-06 11:53:59.722,3520.4,1439.8,604.4,117,0.61
2024-06-06 11:53:59.935,4742.0,2562.5,842.6666666666666,117,0.61
2024-06-06 11:54:00.128,5460.0,2158.8,161.0,117,0.61
2024-06-06 11:54:00.322,4289.8,920.6,-320.4,117,0.61
2024-06-06 11:54:00.618,4504.333333333333,665.3333333333334,151.0,117,0.61
2024-06-06 11:54:00.713,4348.2,1406.8,667.2,117,0.61
2024-06-06 11:54:00.908,4585.6,2354.8,767.2,117,0.61
2024-06-06 11:54:01.117,5089.6,2868.2,533.6,117,0.61
2024-06-06 11:54:01.376,5009.666666666667,1068.5,-83.0,117,0.61
2024-06-06 11:54:01.580,3768.6,839.2,-81.0,117,0.61
2024-06-06 11:54:01.718,5104.6,1166.2,484.2,117,0.61
2024-06-06 11:54:01.912,4214.833333333333,2111.3333333333335,864.6666666666666,117,0.61
2024-06-06 11:54:02.121,4627.4,2819.4,778.4,117,0.61
2024-06-06 11:54:02.333,5867.2,1515.6,-120.6,117,0.61
2024-06-06 11:54:02.590,3971.3333333333335,777.1666666666666,-369.6666666666667,115,0.6
2024-06-06 11:54:02.722,4912.6,1057.8,530.0,115,0.6
2024-06-06 11:54:02.934,4363.8,1882.6,743.2,115,0.6
2024-06-06 11:54:03.128,4709.666666666667,2801.0,828.6666666666666,115,0.6
2024-06-06 11:54:03.324,5784.8,1848.2,-104.8,115,0.6
2024-06-06 11:54:03.581,4223.0,840.6,-615.8,115,0.6
2024-06-06 11:54:03.713,4476.0,747.0,385.0,115,0.6
2024-06-06 11:54:03.922,4336.0,1589.0,741.5,115,0.6
2024-06-06 11:54:04.117,4693.6,2457.2,1062.4,115,0.6
2024-06-06 11:54:04.373,5591.0,2424.8,365.6,115,0.6
2024-06-06 11:54:04.527,4381.5,966.6666666666666,-262.6666666666667,115,0.6
2024-06-06 11:54:04.716,4061.2,695.2,87.6,115,0.6
2024-06-06 11:54:04.933,5076.6,1234.6,560.2,115,0.6
2024-06-06 11:54:05.183,4291.833333333333,2368.6666666666665,830.5,115,0.6
2024-06-06 11:54:05.317,5361.4,2749.8,464.6,115,0.6
2024-06-06 11:54:05.511,5284.6,1112.0,-115.8,115,0.6
2024-06-06 11:54:05.725,3775.6666666666665,677.6666666666666,-304.8333333333333,115,0.6
2024-06-06 11:54:05.918,5225.2,1294.8,461.2,115,0.6
2024-06-06 11:54:06.112,4100.6,2009.6,672.2,115,0.6
2024-06-06 11:54:06.323,4785.0,2923.2,861.4,115,0.6
2024-06-06 11:54:06.526,5338.333333333333,1580.6666666666667,287.0,115,0.6
2024-06-06 11:54:06.727,3533.6,880.4,-93.6,115,0.6
2024-06-06 11:54:06.937,5250.0,1107.4,495.6,115,0.6
2024-06-06 11:54:07.133,3552.3333333333335,1564.0,928.1666666666666,114,0.6
2024-06-06 11:54:07.330,4898.8,2755.4,826.4,114,0.6
2024-06-06 11:54:07.537,4962.2,1943.0,200.8,114,0.6
2024-06-06 11:54:07.740,3917.1666666666665,931.6666666666666,-61.5,114,0.6
2024-06-06 11:54:07.927,4973.0,1203.2,594.2,114,0.6
2024-06-06 11:54:08.122,3398.2,1461.0,646.8,114,0.6
2024-06-06 11:54:08.323,4804.0,2709.6666666666665,767.5,114,0.6
2024-06-06 11:54:08.529,5132.0,2027.4,259.4,114,0.6
2024-06-06 11:54:08.723,4097.8,1061.6,-188.8,114,0.6
2024-06-06 11:54:09.028,4599.8,762.8,246.6,114,0.6
2024-06-06 11:54:09.112,4044.3333333333335,1543.1666666666667,602.0,114,0.6
2024-06-06 11:54:09.324,4674.2,2525.8,939.8,114,0.6
2024-06-06 11:54:09.550,5523.2,2665.8,599.4,114,0.6
2024-06-06 11:54:09.721,4939.5,1015.1666666666666,-73.16666666666667,114,0.6
2024-06-06 11:54:09.967,3493.2,781.4,-183.0,114,0.6
2024-06-06 11:54:10.134,5627.4,1487.2,586.0,114,0.6
2024-06-06 11:54:10.315,4234.4,2433.2,479.2,114,0.6
2024-06-06 11:54:10.522,4918.833333333333,2873.3333333333335,789.8333333333334,114,0.6
2024-06-06 11:54:10.719,6116.8,1332.6,-62.8,114,0.6
2024-06-06 11:54:10.965,3586.2,840.8,-377.8,114,0.6
2024-06-06 11:54:11.119,4791.166666666667,1091.8333333333333,255.16666666666666,114,0.6
2024-06-06 11:54:11.323,4986.5,2189.0,711.0,114,0.6
2024-06-06 11:54:11.324,4589.666666666667,2182.6666666666665,502.0,114,0.6
2024-06-06 11:54:11.526,4773.8,3012.2,884.2,114,0.6
2024-06-06 11:54:11.723,5819.333333333333,1765.3333333333333,183.83333333333334,114,0.6
2024-06-06 11:54:11.997,3774.0,854.8,-333.0,114,0.6
2024-06-06 11:54:12.115,4229.2,1007.0,228.6,114,0.6
2024-06-06 11:54:12.341,4731.2,1476.6,646.8,114,0.6
2024-06-06 11:54:12.593,4619.666666666667,2458.6666666666665,783.3333333333334,114,0.6
2024-06-06 11:54:12.718,5447.0,2485.2,596.6,114,0.6
2024-06-06 11:54:12.923,4714.0,1134.8,-151.8,114,0.6
2024-06-06 11:54:13.119,4092.8333333333335,705.8333333333334,-199.83333333333334,114,0.6
2024-06-06 11:54:13.327,4865.6,1489.0,631.2,114,0.6
2024-06-06 11:54:13.525,4349.8,2229.6,741.6,115,0.6
2024-06-06 11:54:13.718,5242.833333333333,2898.0,711.0,115,0.6
2024-06-06 11:54:13.930,5686.6,1204.6,-20.0,115,0.6
2024-06-06 11:54:14.121,3381.2,546.8,-236.4,115,0.6
2024-06-06 11:54:14.334,5273.166666666667,1263.6666666666667,200.16666666666666,115,0.6
2024-06-06 11:54:14.543,4322.4,2033.4,733.4,115,0.6
2024-06-06 11:54:14.739,4675.8,2866.4,956.4,115,0.6
2024-06-06 11:54:14.924,5976.0,1763.8333333333333,170.66666666666666,115,0.6
2024-06-06 11:54:15.113,3830.0,645.0,-316.0,115,0.6
2024-06-06 11:54:15.371,4284.8,1048.4,209.6,115,0.6
2024-06-06 11:54:15.536,4897.6,1858.8,516.4,115,0.6
2024-06-06 11:54:15.714,4395.0,2557.5,762.5,115,0.6
2024-06-06 11:54:15.923,5606.8,2430.2,293.6,115,0.6
2024-06-06 11:54:16.137,4641.2,1055.0,-111.2,115,0.6
2024-06-06 11:54:16.403,3916.8333333333335,787.5,-71.16666666666667,115,0.6
2024-06-06 11:54:16.525,4809.0,1486.2,630.4,115,0.6
2024-06-06 11:54:16.720,4070.8,2048.0,623.2,115,0.6
2024-06-06 11:54:16.930,4943.833333333333,2687.8333333333335,666.5,115,0.6
2024-06-06 11:54:17.125,5383.2,1211.0,-72.2,115,0.6
2024-06-06 11:54:17.319,3705.0,625.2,-265.0,115,0.6
2024-06-06 11:54:17.543,4843.5,1133.8333333333333,249.33333333333334,115,0.6
2024-06-06 11:54:17.724,4025.6,2053.2,699.6,115,0.6
2024-06-06 11:54:17.948,4836.8,2831.2,1148.6,115,0.6
2024-06-06 11:54:18.144,6658.8,3286.8,-248.2,109,0.57
2024-06-06 11:54:18.339,2625.6666666666665,1757.0,-527.3333333333334,109,0.57
2024-06-06 11:54:18.545,138.0,4350.6,764.4,109,0.57
2024-06-06 11:54:18.710,-601.2,3369.4,309.4,109,0.57
2024-06-06 11:54:18.980,-1953.1666666666667,4010.5,-92.5,109,0.57
2024-06-06 11:54:19.190,-1728.8,3971.6,-283.2,109,0.57
2024-06-06 11:54:19.325,-1604.4,3081.0,29.4,109,0.57
2024-06-06 11:54:19.582,-1849.6,4492.0,175.6,109,0.57
2024-06-06 11:54:19.714,-1231.5,3663.8333333333335,288.3333333333333,109,0.57
2024-06-06 11:54:19.955,-1794.4,3124.2,506.2,109,0.57
2024-06-06 11:54:20.179,-2592.0,4396.0,23.0,109,0.57
2024-06-06 11:54:20.315,-1607.1666666666667,3098.5,133.5,109,0.57
2024-06-06 11:54:20.585,-2079.8,3898.8,-192.2,109,0.57
2024-06-06 11:54:20.720,-1474.8,4532.6,-268.0,109,0.57
2024-06-06 11:54:21.035,-1406.3333333333333,2844.1666666666665,212.5,109,0.57
2024-06-06 11:54:21.126,-2458.4,4535.4,181.0,109,0.57
2024-06-06 11:54:21.319,-1673.0,3601.4,175.4,109,0.57
2024-06-06 11:54:21.547,-1779.4,3000.6,389.8,109,0.57
2024-06-06 11:54:21.712,-1700.6666666666667,4631.166666666667,615.1666666666666,109,0.57
2024-06-06 11:54:21.923,-932.4,3055.4,603.0,109,0.57
2024-06-06 11:54:22.116,-1839.6,3947.2,1034.2,107,0.56
2024-06-06 11:54:22.354,-2183.0,4055.3333333333335,-76.33333333333333,107,0.56
2024-06-06 11:54:22.536,-1610.0,2866.0,-34.6,107,0.56
2024-06-06 11:54:22.796,-1880.0,4573.0,-849.8,107,0.56
2024-06-06 11:54:22.909,-1170.3333333333333,3469.8333333333335,-314.1666666666667,107,0.56
2024-06-06 11:54:23.217,-1750.2,3384.2,-60.0,107,0.56
2024-06-06 11:54:23.393,-2251.2,4486.4,-1008.6,107,0.56
2024-06-06 11:54:23.528,-1205.0,2969.8333333333335,223.16666666666666,107,0.56
2024-06-06 11:54:23.755,1143.2,2949.6,771.4,107,0.56
2024-06-06 11:54:23.964,5440.8,3034.2,320.2,107,0.56
2024-06-06 11:54:24.186,3978.4,2542.0,386.0,107,0.56
2024-06-06 11:54:24.321,4462.166666666667,2927.3333333333335,436.8333333333333,107,0.56
2024-06-06 11:54:24.607,5382.6,1622.4,145.2,107,0.56
2024-06-06 11:54:24.743,3521.6,876.2,-65.0,107,0.56
2024-06-06 11:54:24.980,4866.666666666667,1210.3333333333333,399.0,107,0.56
2024-06-06 11:54:25.115,3734.4,1896.4,686.0,107,0.56
2024-06-06 11:54:25.311,4314.6,2546.8,763.0,107,0.56
2024-06-06 11:54:25.521,5142.0,2137.6666666666665,345.3333333333333,107,0.56
2024-06-06 11:54:25.718,3839.0,905.0,96.2,107,0.56
2024-06-06 11:54:25.915,4240.0,834.8,252.6,107,0.56
2024-06-06 11:54:26.124,4408.0,1602.6666666666667,629.0,107,0.56
2024-06-06 11:54:26.317,4183.0,2393.0,659.0,107,0.56
2024-06-06 11:54:26.527,4911.8,2670.2,285.0,107,0.56
2024-06-06 11:54:26.789,4806.2,1270.2,-128.0,107,0.56
2024-06-06 11:54:26.916,4191.666666666667,661.6666666666666,-216.16666666666666,107,0.56
2024-06-06 11:54:27.130,4740.0,1282.4,520.4,107,0.56
2024-06-06 11:54:27.323,3830.2,1996.8,812.6,107,0.56
2024-06-06 11:54:27.532,4778.166666666667,2756.8333333333335,599.8333333333334,107,0.56
2024-06-06 11:54:27.776,5553.6,1486.8,-88.4,107,0.56
2024-06-06 11:54:27.923,3698.8,714.4,-248.2,107,0.56
2024-06-06 11:54:28.116,4653.333333333333,1118.1666666666667,473.1666666666667,107,0.56
2024-06-06 11:54:28.327,4054.6,1740.2,767.2,107,0.56
2024-06-06 11:54:28.523,4425.8,2688.0,675.6,107,0.56
2024-06-06 11:54:28.788,5422.6,2390.2,254.6,107,0.56
2024-06-06 11:54:28.912,4230.0,805.3333333333334,-3.8333333333333335,107,0.56
2024-06-06 11:54:29.122,4228.2,861.0,165.0,107,0.56
2024-06-06 11:54:29.316,4874.4,1549.8,568.6,107,0.56
2024-06-06 11:54:29.541,4268.166666666667,2313.1666666666665,634.8333333333334,107,0.56
2024-06-06 11:54:29.803,5247.8,2604.6,533.4,107,0.56
2024-06-06 11:54:29.920,4952.8,1263.6,-18.2,107,0.56
2024-06-06 11:54:30.112,3473.2,491.8,-103.8,107,0.56
2024-06-06 11:54:30.321,5112.166666666667,1273.0,386.6666666666667,107,0.56
2024-06-06 11:54:30.517,4055.8,1995.6,601.8,107,0.56
2024-06-06 11:54:30.709,4371.4,2726.4,695.8,107,0.56
2024-06-06 11:54:30.934,5313.0,1867.0,182.33333333333334,107,0.56
2024-06-06 11:54:31.114,3934.6,698.0,-122.4,107,0.56
2024-06-06 11:54:31.309,4711.8,867.6,380.8,107,0.56
2024-06-06 11:54:31.519,4220.166666666667,1522.6666666666667,591.0,107,0.56
2024-06-06 11:54:31.715,4344.2,2466.4,661.8,107,0.56
2024-06-06 11:54:31.909,5076.2,2663.8,387.2,107,0.56
2024-06-06 11:54:32.119,4627.666666666667,1023.0,68.66666666666667,107,0.56
2024-06-06 11:54:32.314,4063.6,647.8,26.0,107,0.56
2024-06-06 11:54:32.509,4729.4,1427.4,497.6,107,0.56
2024-06-06 11:54:32.719,3878.6,2049.2,526.8,107,0.56
2024-06-06 11:54:32.914,4704.166666666667,2744.8333333333335,716.6666666666666,107,0.56
2024-06-06 11:54:33.124,5418.6,1422.2,9.6,106,0.55
2024-06-06 11:54:33.319,3626.2,754.0,-303.6,106,0.55
2024-06-06 11:54:33.529,4853.166666666667,1130.0,379.8333333333333,106,0.55
2024-06-06 11:54:33.729,4060.0,1824.8,714.6,106,0.55
2024-06-06 11:54:33.952,4346.0,2675.2,773.8,106,0.55
2024-06-06 11:54:34.134,5731.666666666667,2093.0,226.66666666666666,106,0.55
2024-06-06 11:54:34.372,4141.8,850.4,-305.6,106,0.55
2024-06-06 11:54:34.524,3953.4,801.8,114.8,106,0.55
2024-06-06 11:54:34.723,4912.166666666667,1644.3333333333333,572.3333333333334,106,0.55
2024-06-06 11:54:34.913,4322.8,2368.2,579.8,106,0.55
2024-06-06 11:54:35.121,4877.4,2650.4,712.0,106,0.55
2024-06-06 11:54:35.332,5252.6,1185.6,-65.2,106,0.55
2024-06-06 11:54:35.511,3600.8333333333335,698.8333333333334,-204.33333333333334,106,0.55
2024-06-06 11:54:35.721,5259.2,1254.4,408.2,106,0.55
2024-06-06 11:54:35.948,4255.8,1991.6,575.4,106,0.55
2024-06-06 11:54:36.175,4117.666666666667,2545.1666666666665,535.0,106,0.55
2024-06-06 11:54:36.326,5648.4,2018.6,42.4,106,0.55
2024-06-06 11:54:36.517,4813.8,993.2,-331.2,105,0.55
2024-06-06 11:54:36.727,3060.6666666666665,827.8333333333334,194.66666666666666,105,0.55
2024-06-06 11:54:37.048,5463.2,1561.2,1230.6,105,0.55
2024-06-06 11:54:37.118,3691.6,1994.2,660.0,105,0.55
2024-06-06 11:54:37.325,3886.3333333333335,1576.6666666666667,591.0,105,0.55
2024-06-06 11:54:37.522,4587.0,2173.0,143.0,105,0.55
2024-06-06 11:54:37.738,4999.6,1008.0,-115.8,105,0.55
2024-06-06 11:54:37.971,2739.6,1095.4,512.8,105,0.55
2024-06-06 11:54:38.121,4568.5,1404.0,725.6666666666666,105,0.55
2024-06-06 11:54:38.317,4276.6,1379.2,154.0,105,0.55
2024-06-06 11:54:38.528,3487.0,1490.2,414.0,105,0.55
2024-06-06 11:54:38.722,4205.833333333333,1895.3333333333333,1018.3333333333334,105,0.55
2024-06-06 11:54:38.919,4636.0,2070.8,-137.2,105,0.55
2024-06-06 11:54:39.112,4915.8,1276.6,-354.0,105,0.55
2024-06-06 11:54:39.399,3165.6,850.4,519.2,105,0.55
2024-06-06 11:54:39.514,4617.166666666667,1234.6666666666667,778.1666666666666,105,0.55
2024-06-06 11:54:39.739,3961.0,1681.2,366.2,105,0.55
2024-06-06 11:54:39.919,3923.8,2152.4,651.8,105,0.55
2024-06-06 11:54:40.114,4758.5,2337.0,361.8333333333333,105,0.55
2024-06-06 11:54:40.309,5008.6,981.0,-227.8,105,0.55
2024-06-06 11:54:40.534,3252.8,940.2,121.6,105,0.55
2024-06-06 11:54:40.840,4569.666666666667,1289.0,751.3333333333334,105,0.55
2024-06-06 11:54:40.909,4127.6,1569.0,392.8,105,0.55
2024-06-06 11:54:41.104,3544.6,1966.4,829.2,105,0.55
2024-06-06 11:54:41.314,4223.8,2354.4,544.6,105,0.55
2024-06-06 11:54:41.509,5190.5,1449.0,81.0,105,0.55
2024-06-06 11:54:41.719,3417.0,783.2,449.2,105,0.55
2024-06-06 11:54:41.944,4564.2,1061.8,549.6,105,0.55
2024-06-06 11:54:42.109,4352.166666666667,1642.3333333333333,345.1666666666667,105,0.55
2024-06-06 11:54:42.319,3671.4,2189.2,868.4,105,0.55
2024-06-06 11:54:42.517,4485.2,2487.0,419.2,105,0.55
2024-06-06 11:54:42.729,5646.0,1313.3333333333333,-142.66666666666666,105,0.55
2024-06-06 11:54:42.938,3104.0,483.8,393.6,105,0.55
2024-06-06 11:54:43.117,4810.2,1211.0,494.0,105,0.55
2024-06-06 11:54:43.312,4592.166666666667,1846.5,370.1666666666667,105,0.55
2024-06-06 11:54:43.537,3731.0,2386.0,707.6,105,0.55
2024-06-06 11:54:43.717,5094.2,2391.6,282.8,105,0.55
2024-06-06 11:54:43.963,5103.0,1098.2,-210.6,105,0.55
2024-06-06 11:54:44.121,3389.6666666666665,658.5,81.66666666666667,104,0.54
2024-06-06 11:54:44.377,5251.8,1243.6,763.4,104,0.54
2024-06-06 11:54:44.527,3964.0,1954.6,546.0,104,0.54
2024-06-06 11:54:44.723,3896.5,2479.3333333333335,770.1666666666666,104,0.54
2024-06-06 11:54:44.921,5450.8,1990.0,64.8,104,0.54
2024-06-06 11:54:45.114,4639.8,953.0,60.8,104,0.54
2024-06-06 11:54:45.328,3626.0,506.5,386.3333333333333,104,0.54
2024-06-06 11:54:45.516,5328.2,1546.0,559.4,104,0.54
2024-06-06 11:54:45.711,3813.2,2119.8,531.2,104,0.54
2024-06-06 11:54:45.975,3885.0,2707.0,905.0,104,0.54
2024-06-06 11:54:45.976,4260.8,2640.2,592.6,104,0.54
2024-06-06 11:54:46.119,5802.6,1558.2,-150.8,104,0.54
2024-06-06 11:54:46.329,4092.8,607.6,-78.6,104,0.54
2024-06-06 11:54:46.552,4094.4,829.8,524.0,104,0.54
2024-06-06 11:54:46.714,5018.666666666667,1600.5,579.6666666666666,104,0.54
2024-06-06 11:54:46.994,3913.2,2310.8,724.6,104,0.54
2024-06-06 11:54:47.152,4499.8,2607.4,371.2,104,0.54
2024-06-06 11:54:47.334,5573.5,1281.8333333333333,-33.166666666666664,104,0.54
2024-06-06 11:54:47.527,3514.0,345.6,188.4,104,0.54
2024-06-06 11:54:47.721,5162.8,1111.2,372.2,104,0.54
