Timestamp,altitude,course,hacc,latitude,longitude,speed,Acceleration_X,Acceleration_Y,Acceleration_Z,MagneticField_X,MagneticField_Y,MagneticField_Z,Orientation_X,Orientation_Y,Orientation_Z,AngularVelocity_X,AngularVelocity_Y,AngularVelocity_Z
2024-06-06 12:07:45.790,80.159,0.0,7.249,52.334694,4.861722,0.0,0.370289,3.768696,9.369696,8.868751,-22.125,-41.100002,-128.3601,-21.669911,-3.731807,0.022903,0.041812,0.015979
2024-06-06 12:07:45.802,80.159,0.0,7.249,52.334694,4.861722,0.0,0.349352,3.5781675,9.510871999999999,8.868751,-22.125,-41.100002,-128.3601,-21.669911,-3.731807,0.022903,0.041812,0.015979
2024-06-06 12:07:45.810,80.159,0.0,7.249,52.334694,4.861722,0.0,0.328415,3.387639,9.652048,8.88281325,-22.1484375,-41.067189,-128.3601,-21.669911,-3.731807,0.022903,0.041812,0.015979
2024-06-06 12:07:45.830,80.159,0.0,7.249,52.334694,4.861722,0.0,0.438485,3.469593,9.281759,8.8968755,-22.171875,-41.034376,-128.3601,-21.669911,-3.731807,0.022903,0.041812,0.015979
2024-06-06 12:07:45.850,80.159,0.0,7.249,52.334694,4.861722,0.0,0.71007,3.650251,8.581859,8.91093775,-22.1953125,-41.001563000000004,-128.3601,-21.669911,-3.731807,0.022903,0.041812,0.015979
2024-06-06 12:07:45.862,80.159,0.0,7.249,52.334694,4.861722,0.0,0.8189435,3.5521455,8.615358,8.925,-22.21875,-40.96875,-128.3601,-21.669911,-3.731807,0.022903,0.041812,0.015979
2024-06-06 12:07:45.870,80.159,0.0,7.249,52.334694,4.861722,0.0,0.927817,3.45404,8.648857,8.8546875,-22.23750025,-40.978125500000004,-128.3601,-21.669911,-3.731807,0.022903,0.041812,0.015979
2024-06-06 12:07:45.890,80.159,0.0,7.249,52.334694,4.861722,0.0,0.615554,3.719643,9.030513,8.784375,-22.2562505,-40.987501,-128.3601,-21.669911,-3.731807,0.022903,0.041812,0.015979
2024-06-06 12:07:45.910,80.159,0.0,7.249,52.334694,4.861722,0.0,0.722034,3.852444,9.175279,8.7140625,-22.27500075,-40.9968765,-128.3601,-21.669911,-3.731807,0.022903,0.041812,0.015979
2024-06-06 12:07:45.922,80.159,0.0,7.249,52.334694,4.861722,0.0,0.7286144999999999,3.6484560000000004,9.1657075,8.64375,-22.293751,-41.006252,-128.3601,-21.669911,-3.731807,0.022903,0.041812,0.015979
2024-06-06 12:07:45.930,80.159,0.0,7.249,52.334694,4.861722,0.0,0.735195,3.444468,9.156136,8.625,-22.3162508,-40.998751600000006,-128.3601,-21.669911,-3.731807,0.022903,0.041812,0.015979
2024-06-06 12:07:45.950,80.159,0.0,7.249,52.334694,4.861722,0.0,0.560519,3.734,9.33141,8.606250000000001,-22.3387506,-40.9912512,-128.3601,-21.669911,-3.731807,0.022903,0.041812,0.015979
2024-06-06 12:07:45.966,80.159,0.0,7.249,52.334694,4.861722,0.0,0.44686000000000003,3.8231325,9.30479,8.5875,-22.3612504,-40.9837508,-128.3601,-21.669911,-3.731807,0.022903,0.041812,0.015979
2024-06-06 12:07:45.970,80.159,0.0,7.249,52.334694,4.861722,0.0,0.333201,3.912265,9.27817,8.568750000000001,-22.3837502,-40.9762504,-128.3141849375,-21.596076937499998,-3.837744,0.022903,0.041812,0.015979
2024-06-06 12:07:45.982,80.159,0.0,7.249,52.334694,4.861722,0.0,0.4462615,3.697509,9.2225365,8.55,-22.40625,-40.96875,-128.268269875,-21.522242875,-3.9436809999999998,0.022903,0.041812,0.015979
2024-06-06 12:07:45.990,80.159,0.0,7.249,52.334694,4.861722,0.0,0.559322,3.482753,9.166903,8.5575002,-22.4475002,-40.8637504,-128.2223548125,-21.4484088125,-4.049618,0.022903,0.041812,0.015979
2024-06-06 12:07:46.000,80.159,0.0,7.249,52.334694,4.861722,0.0,0.634098,3.5359935,9.3245305,8.5650004,-22.4887504,-40.7587508,-128.17643975,-21.37457475,-4.155555,0.022903,0.041812,0.015979
2024-06-06 12:07:46.010,80.159,0.0,7.249,52.334694,4.861722,0.0,0.708874,3.589234,9.482158,8.5725006,-22.5300006,-40.6537512,-128.13052468749999,-21.3007406875,-4.261492,0.022903,0.041812,0.015979
2024-06-06 12:07:46.030,80.159,0.0,7.249,52.334694,4.861722,0.0,0.576072,3.600002,9.697512,8.5800008,-22.5712508,-40.5487516,-128.08460962499998,-21.226906624999998,-4.367429,0.022903,0.041812,0.015979
2024-06-06 12:07:46.042,80.159,0.0,7.249,52.334694,4.861722,0.0,0.6711865,3.547958,9.5790675,8.587501,-22.612501,-40.443752,-128.03869456249998,-21.1530725625,-4.473366,0.022903,0.041812,0.015979
2024-06-06 12:07:46.050,80.159,0.0,7.249,52.334694,4.861722,0.0,0.766301,3.495914,9.460623,8.521875999999999,-22.6359385,-40.4343765,-127.9927795,-21.0792385,-4.5793029999999995,0.022903,0.041812,0.015979
2024-06-06 12:07:46.070,80.159,0.0,7.249,52.334694,4.861722,0.0,0.981655,3.406781,9.110672,8.456251,-22.659376,-40.425001,-127.9468644375,-21.005404437499998,-4.68524,0.022903,0.041812,0.015979
2024-06-06 12:07:46.090,80.159,0.0,7.249,52.334694,4.861722,0.0,0.885943,3.378067,9.089137,8.390626000000001,-22.6828135,-40.415625500000004,-127.900949375,-20.931570375,-4.791176999999999,0.022903,0.041812,0.015979
2024-06-06 12:07:46.102,80.159,0.0,7.249,52.334694,4.861722,0.0,0.7908280000000001,3.412464,9.159127,8.325001,-22.706251,-40.40625,-127.8550343125,-20.8577363125,-4.897114,0.022903,0.041812,0.015979
2024-06-06 12:07:46.110,80.159,0.0,7.249,52.334694,4.861722,0.0,0.695713,3.446861,9.229117,8.29218825,-22.720313500000003,-40.3500005,-127.80911925000001,-20.783902249999997,-5.003051,0.022903,0.041812,0.015979
2024-06-06 12:07:46.130,80.159,0.0,7.249,52.334694,4.861722,0.0,0.731606,3.511467,9.299706,8.2593755,-22.734376,-40.293751,-127.76320418750001,-20.7100681875,-5.108988,0.022903,0.041812,0.015979
2024-06-06 12:07:46.150,80.159,0.0,7.249,52.334694,4.861722,0.0,0.956531,3.445665,9.324232,8.22656275,-22.7484385,-40.2375015,-127.71728912500001,-20.636234124999998,-5.214925,0.022903,0.041812,0.015979
2024-06-06 12:07:46.162,80.159,0.0,7.249,52.334694,4.861722,0.0,0.972483,3.4544386666666664,9.303294666666666,8.19375,-22.762501,-40.181252,-127.6713740625,-20.5624000625,-5.320862,0.022903,0.041812,0.015979
2024-06-06 12:07:46.165,80.159,0.0,7.249,52.334694,4.861722,0.0,0.988435,3.4632123333333333,9.282357333333334,8.1525,-22.773750800000002,-40.2450016,-127.625459,-20.488566,-5.426799,0.022903,0.041812,0.015979
2024-06-06 12:07:46.170,80.159,0.0,7.249,52.334694,4.861722,0.0,1.004387,3.471986,9.26142,8.11125,-22.7850006,-40.3087512,-127.68724778571429,-20.544126714285714,-5.381945714285714,0.022903,0.041812,0.015979
2024-06-06 12:07:46.190,80.159,0.0,7.249,52.334694,4.861722,0.0,1.067797,3.456432,8.87139,8.07,-22.7962504,-40.3725008,-127.74903657142858,-20.59968742857143,-5.337092428571428,0.022903,0.041812,0.015979
2024-06-06 12:07:46.210,80.159,0.0,7.249,52.334694,4.861722,0.0,1.140778,3.498307,9.055637,8.02875,-22.8075002,-40.4362504,-127.81082535714286,-20.655248142857143,-5.2922391428571425,0.022903,0.041812,0.015979
2024-06-06 12:07:46.222,80.159,0.0,7.249,52.334694,4.861722,0.0,1.026521,3.5060835,9.079565500000001,7.9875,-22.81875,-40.5,-127.87261414285715,-20.710808857142855,-5.2473858571428575,0.022903,0.041812,0.015979
2024-06-06 12:07:46.230,80.159,0.0,7.249,52.334694,4.861722,0.0,0.912264,3.51386,9.103494,7.9078125,-22.78125025,-40.59375,-127.93440292857143,-20.76636957142857,-5.202532571428572,0.022903,0.041812,0.015979
2024-06-06 12:07:46.250,80.159,0.0,7.249,52.334694,4.861722,0.0,0.984048,3.549752,9.129815,7.828125,-22.7437505,-40.6875,-127.99619171428571,-20.821930285714284,-5.157679285714286,0.022903,0.041812,0.015979
2024-06-06 12:07:46.270,80.159,0.0,7.249,52.334694,4.861722,0.0,1.041476,3.643072,9.144172,7.7484375,-22.706250750000002,-40.78125,-128.05798049999999,-20.877491,-5.112826,0.022903,0.041812,0.015979
2024-06-06 12:07:46.282,80.159,0.0,7.249,52.334694,4.861722,0.0,1.0666005,3.6843485,9.0496555,7.66875,-22.668751,-40.875,-128.11976928571428,-20.933051714285714,-5.067972714285714,0.022903,0.041812,0.015979
2024-06-06 12:07:46.290,80.159,0.0,7.249,52.334694,4.861722,0.0,1.091725,3.725625,8.955139,7.5796875,-22.6546885,-41.02031325,-128.18155807142858,-20.98861242857143,-5.0231194285714285,0.022903,0.041812,0.015979
2024-06-06 12:07:46.310,80.159,0.0,7.249,52.334694,4.861722,0.0,1.071386,3.386442,8.750552,7.490625,-22.640626,-41.1656265,-128.24334685714285,-21.044173142857144,-4.978266142857143,0.022903,0.041812,0.015979
2024-06-06 12:07:46.330,80.159,0.0,7.249,52.334694,4.861722,0.0,1.113261,3.552145,9.375677,7.4015625,-22.626563500000003,-41.310939749999996,-128.30513564285712,-21.099733857142855,-4.933412857142858,0.022903,0.041812,0.015979
2024-06-06 12:07:46.342,80.159,0.0,7.249,52.334694,4.861722,0.0,0.9619150000000001,3.5916265,9.130711999999999,7.3125,-22.612501,-41.456253,-128.36692442857142,-21.15529457142857,-4.888559571428572,0.022903,0.041812,0.015979
2024-06-06 12:07:46.350,80.159,0.0,7.249,52.334694,4.861722,0.0,0.810569,3.631108,8.885747,7.365,-22.631251000000002,-41.4150024,-128.42871321428572,-21.210855285714285,-4.843706285714286,0.022903,0.041812,0.015979
2024-06-06 12:07:46.365,80.159,0.0,7.249,52.334694,4.861722,0.0,0.8476575,3.68375,8.7248295,7.4175,-22.650001000000003,-41.3737518,-128.490502,-21.266416,-4.798853,0.022903,0.041812,0.015979
2024-06-06 12:07:46.370,80.159,0.0,7.249,52.334694,4.861722,0.0,0.884746,3.736392,8.563912,7.47,-22.668751,-41.332501199999996,-128.62829153333334,-21.212980666666667,-4.539120266666667,0.022903,0.041812,0.015979
2024-06-06 12:07:46.390,80.159,0.0,7.249,52.334694,4.861722,0.0,1.157528,3.215355,8.493324,7.5225,-22.687501,-41.2912506,-128.76608106666666,-21.159545333333334,-4.279387533333334,0.022903,0.041812,0.015979
2024-06-06 12:07:46.402,80.159,0.0,7.249,52.334694,4.861722,0.0,1.184447,3.1992035000000003,8.715258500000001,7.575,-22.706251,-41.25,-128.9038706,-21.10611,-4.0196548000000005,0.022903,0.041812,0.015979
2024-06-06 12:07:46.410,80.159,0.0,7.249,52.334694,4.861722,0.0,1.211366,3.183052,8.937193,7.63125,-22.71093825,-41.26875025,-129.04166013333332,-21.052674666666665,-3.759922066666667,0.022903,0.041812,0.015979
2024-06-06 12:07:46.430,80.159,0.0,7.249,52.334694,4.861722,0.0,0.015553,3.366103,9.681958,7.6875,-22.7156255,-41.2875005,-129.17944966666667,-20.999239333333332,-3.5001893333333336,0.022903,0.041812,0.015979
2024-06-06 12:07:46.450,80.159,0.0,7.249,52.334694,4.861722,0.0,-0.434297,3.578466,10.414761,7.74375,-22.72031275,-41.306250750000004,-129.3172392,-20.945804,-3.2404566,0.022903,0.041812,0.015979
2024-06-06 12:07:46.462,80.159,0.0,7.249,52.334694,4.861722,0.0,-0.415753,3.5629125000000004,10.260723,7.8,-22.725,-41.325001,-129.45502873333334,-20.892368666666666,-2.9807238666666667,0.022903,0.041812,0.015979
2024-06-06 12:07:46.470,80.159,0.0,7.249,52.334694,4.861722,0.0,-0.397209,3.547359,10.106685,7.83375,-22.728750400000003,-41.400001,-129.59281826666665,-20.838933333333333,-2.7209911333333334,0.022903,0.041812,0.015979
2024-06-06 12:07:46.490,80.159,0.0,7.249,52.334694,4.861722,0.0,-0.118445,3.579663,9.622138,7.8675,-22.7325008,-41.475001,-129.7306078,-20.785498,-2.4612584,0.022903,0.041812,0.015979
2024-06-06 12:07:46.503,80.159,0.0,7.249,52.334694,4.861722,0.0,-0.11066799999999999,3.5958145,9.468399,7.90125,-22.7362512,-41.550001,-129.86839733333332,-20.732062666666668,-2.201525666666667,0.022903,0.041812,0.015979
2024-06-06 12:07:46.510,80.159,0.0,7.249,52.334694,4.861722,0.0,-0.102891,3.611966,9.31466,7.935,-22.7400016,-41.625001,-130.00618686666667,-20.678627333333335,-1.9417929333333332,0.022936733333333334,0.041037906666666665,0.015751746666666667
2024-06-06 12:07:46.522,80.159,0.0,7.249,52.334694,4.861722,0.0,-0.049651,3.5880375,9.325427999999999,7.96875,-22.743752,-41.700001,-130.14397639999999,-20.625192,-1.6820602,0.022970466666666665,0.040263813333333336,0.015524493333333333
2024-06-06 12:07:46.530,80.159,0.0,7.249,52.334694,4.861722,0.0,0.003589,3.564109,9.336196,8.0475,-22.7512516,-41.6475008,-130.28176593333333,-20.571756666666666,-1.4223274666666668,0.0230042,0.03948972,0.01529724
2024-06-06 12:07:46.550,80.159,0.0,7.249,52.334694,4.861722,0.0,0.137587,3.416951,9.309875,8.12625,-22.7587512,-41.5950006,-130.41955546666665,-20.518321333333333,-1.162594733333333,0.023037933333333333,0.03871562666666667,0.015069986666666667
2024-06-06 12:07:46.565,80.159,0.0,7.249,52.334694,4.861722,0.0,0.23001,3.3747775,9.229416,8.205,-22.7662508,-41.5425004,-130.557345,-20.464886,-0.902862,0.023071666666666667,0.03794153333333333,0.014842733333333333
2024-06-06 12:07:46.570,80.159,0.0,7.249,52.334694,4.861722,0.0,0.322433,3.332604,9.148957,8.283750000000001,-22.7737504,-41.4900002,-130.56561406666665,-20.4763896,-0.9688852000000001,0.023105399999999998,0.03716744,0.01461548
2024-06-06 12:07:46.582,80.159,0.0,7.249,52.334694,4.861722,0.0,0.3655035,3.4005,9.064012,8.3625,-22.78125,-41.4375,-130.57388313333334,-20.4878932,-1.0349084,0.023139133333333332,0.036393346666666666,0.014388226666666667
2024-06-06 12:07:46.590,80.159,0.0,7.249,52.334694,4.861722,0.0,0.408574,3.468396,8.979067,8.4375,-22.790625,-41.423438000000004,-130.5821522,-20.4993968,-1.1009316,0.023172866666666667,0.03561925333333334,0.014160973333333333
2024-06-06 12:07:46.610,80.159,0.0,7.249,52.334694,4.861722,0.0,0.330808,3.622734,8.857033,8.5125,-22.8,-41.409376,-130.59042126666665,-20.5109004,-1.1669548,0.0232066,0.03484516,0.01393372
2024-06-06 12:07:46.630,80.159,0.0,7.249,52.334694,4.861722,0.0,0.215354,3.64068,9.270991,8.5875,-22.809375000000003,-41.395314,-130.59869033333334,-20.522404,-1.2329780000000001,0.02324033333333333,0.03407106666666667,0.013706466666666667
2024-06-06 12:07:46.642,80.159,0.0,7.249,52.334694,4.861722,0.0,0.18604199999999999,3.7178485,9.2632145,8.6625,-22.81875,-41.381252,-130.6069594,-20.5339076,-1.2990012000000002,0.023274066666666666,0.033296973333333334,0.013479213333333333
2024-06-06 12:07:46.650,80.159,0.0,7.249,52.334694,4.861722,0.0,0.15673,3.795017,9.255438,8.80781275,-22.80468775,-41.2171895,-130.61522846666665,-20.5454112,-1.3650244,0.0233078,0.032522880000000004,0.01325196
2024-06-06 12:07:46.670,80.159,0.0,7.249,52.334694,4.861722,0.0,0.308076,3.708875,9.035298,8.953125499999999,-22.7906255,-41.053127,-130.62349753333334,-20.5569148,-1.4310476,0.023341533333333334,0.03174878666666667,0.013024706666666667
2024-06-06 12:07:46.690,80.159,0.0,7.249,52.334694,4.861722,0.0,0.206979,3.488735,9.218349,9.09843825,-22.776563250000002,-40.8890645,-130.6317666,-20.568418400000002,-1.4970708000000001,0.023375266666666665,0.030974693333333338,0.012797453333333333
2024-06-06 12:07:46.701,80.159,0.0,7.249,52.334694,4.861722,0.0,0.145364,3.4630125,9.446564500000001,9.243751,-22.762501,-40.725002,-130.64003566666665,-20.579922,-1.563094,0.023409,0.0302006,0.0125702
2024-06-06 12:07:46.710,80.159,0.0,7.249,52.334694,4.861722,0.0,0.083749,3.43729,9.67478,9.37968825,-22.809376,-40.5750015,-130.64830473333333,-20.5914256,-1.6291172,0.023442733333333333,0.02942650666666667,0.012342946666666667
2024-06-06 12:07:46.730,80.159,0.0,7.249,52.334694,4.861722,0.0,0.189033,3.421736,9.57787,9.515625499999999,-22.856251,-40.425001,-130.6565738,-20.602929200000002,-1.6951404,0.023476466666666668,0.028652413333333335,0.012115693333333333
2024-06-06 12:07:46.750,80.159,0.0,7.249,52.334694,4.861722,0.0,0.354736,3.418147,9.31825,9.65156275,-22.903126,-40.275000500000004,-130.66484286666665,-20.614432800000003,-1.7611636000000002,0.0235102,0.027878320000000005,0.01188844
2024-06-06 12:07:46.762,80.159,0.0,7.249,52.334694,4.861722,0.0,0.303091,3.4293136666666664,9.338589,9.7875,-22.950001,-40.125,-130.67311193333333,-20.6259364,-1.8271868000000002,0.023543933333333333,0.02710422666666667,0.011661186666666667
2024-06-06 12:07:46.764,80.159,0.0,7.249,52.334694,4.861722,0.0,0.251446,3.4404803333333334,9.358928,9.84,-22.995001000000002,-40.0125,-130.681381,-20.63744,-1.89321,0.023577666666666667,0.02633013333333334,0.011433933333333333
2024-06-06 12:07:46.770,80.159,0.0,7.249,52.334694,4.861722,0.0,0.199801,3.451647,9.379267,9.8925,-23.040001,-39.9,-130.6547207857143,-20.7722605,-2.0159842857142856,0.0236114,0.025556040000000002,0.01120668
2024-06-06 12:07:46.790,80.159,0.0,7.249,52.334694,4.861722,0.0,0.287737,3.555734,9.257831,9.945,-23.085001000000002,-39.7875,-130.62806057142856,-20.907081,-2.1387585714285713,0.023645133333333332,0.02478194666666667,0.010979426666666667
2024-06-06 12:07:46.810,80.159,0.0,7.249,52.334694,4.861722,0.0,0.637089,3.392424,8.949157,9.9975,-23.130001,-39.675,-130.60140035714284,-21.0419015,-2.261532857142857,0.023678866666666666,0.024007853333333336,0.010752173333333333
2024-06-06 12:07:46.822,80.159,0.0,7.249,52.334694,4.861722,0.0,0.4749755,3.5727830000000003,9.005388499999999,10.05,-23.175001,-39.5625,-130.57474014285714,-21.176722,-2.3843071428571427,0.0237126,0.023233760000000003,0.01052492
2024-06-06 12:07:46.830,80.159,0.0,7.249,52.334694,4.861722,0.0,0.312862,3.753142,9.06162,10.068750000000001,-23.189063500000003,-39.53437525,-130.54807992857144,-21.3115425,-2.5070814285714285,0.023746333333333335,0.02245966666666667,0.010297666666666667
2024-06-06 12:07:46.850,80.159,0.0,7.249,52.334694,4.861722,0.0,0.238684,3.824927,9.367303,10.0875,-23.203126,-39.5062505,-130.5214197142857,-21.446363,-2.629855714285714,0.023780066666666665,0.021685573333333336,0.010070413333333333
2024-06-06 12:07:46.870,80.159,0.0,7.249,52.334694,4.861722,0.0,0.291326,3.779463,9.323035,10.10625,-23.2171885,-39.478125750000004,-130.4947595,-21.5811835,-2.75263,0.0238138,0.020911480000000003,0.00984316
2024-06-06 12:07:46.882,80.159,0.0,7.249,52.334694,4.861722,0.0,0.393619,3.759124,9.215657,10.125,-23.231251,-39.450001,-130.4680992857143,-21.716004,-2.8754042857142856,0.023847533333333334,0.02013738666666667,0.009615906666666667
2024-06-06 12:07:46.890,80.159,0.0,7.249,52.334694,4.861722,0.0,0.495912,3.738785,9.108279,10.0640625,-23.2546885,-39.39375125,-130.4414390714286,-21.8508245,-2.9981785714285714,0.023881266666666668,0.019363293333333337,0.009388653333333333
2024-06-06 12:07:46.910,80.159,0.0,7.249,52.334694,4.861722,0.0,0.497109,3.875176,8.933603,10.003125,-23.278126,-39.3375015,-130.41477885714286,-21.985645,-3.120952857142857,0.023915,0.018589200000000004,0.0091614
2024-06-06 12:07:46.930,80.159,0.0,7.249,52.334694,4.861722,0.0,0.664607,3.842873,9.029316,9.9421875,-23.3015635,-39.28125175,-130.38811864285714,-22.1204655,-3.243727142857143,0.023948733333333333,0.01781510666666667,0.008934146666666667
2024-06-06 12:07:46.942,80.159,0.0,7.249,52.334694,4.861722,0.0,0.7070795,3.8123645,9.207282,9.88125,-23.325001,-39.225002,-130.36145842857144,-22.255286,-3.3665014285714285,0.023982466666666667,0.017041013333333337,0.008706893333333333
2024-06-06 12:07:46.950,80.159,0.0,7.249,52.334694,4.861722,0.0,0.749552,3.781856,9.385248,9.856250166666666,-23.331251,-39.196877,-130.33479821428574,-22.3901065,-3.4892757142857143,0.0240162,0.016266920000000004,0.00847964
2024-06-06 12:07:46.964,80.159,0.0,7.249,52.334694,4.861722,0.0,0.7076775,3.8129625000000003,9.382257500000001,9.831250333333333,-23.337501,-39.168752000000005,-130.308138,-22.524927,-3.61205,0.024049933333333332,0.015492826666666671,0.008252386666666667
2024-06-06 12:07:46.970,80.159,0.0,7.249,52.334694,4.861722,0.0,0.665803,3.844069,9.379267,9.8062505,-23.343751,-39.140627,-130.3206172666667,-22.5009622,-3.6196715999999998,0.024083666666666666,0.014718733333333338,0.008025133333333333
2024-06-06 12:07:46.990,80.159,0.0,7.249,52.334694,4.861722,0.0,0.749552,3.809374,9.114262,9.781250666666667,-23.350001000000002,-39.112502,-130.33309653333333,-22.476997400000002,-3.6272932,0.0241174,0.013944640000000005,0.00779788
2024-06-06 12:07:47.000,78.667,0.0,6.826,52.33469,4.861735,0.0,0.72682,3.789035,9.052447333333333,9.756250833333333,-23.356251,-39.084377,-130.3455758,-22.4530326,-3.6349148,0.024151133333333335,0.013170546666666672,0.007570626666666667
2024-06-06 12:07:47.002,78.667,0.0,6.826,52.33469,4.861735,0.0,0.7040879999999999,3.768696,8.990632666666666,9.731251,-23.362501,-39.056252,-130.35805506666668,-22.429067800000002,-3.6425364,0.024184866666666666,0.012396453333333338,0.007343373333333333
2024-06-06 12:07:47.010,78.667,0.0,6.826,52.33469,4.861735,0.0,0.681356,3.748357,8.928818,9.637501,-23.40468825,-39.1265645,-130.37053433333335,-22.405103,-3.650158,0.0242186,0.011622360000000005,0.00711612
2024-06-06 12:07:47.030,78.667,0.0,6.826,52.33469,4.861735,0.0,0.706481,3.76391,8.85823,9.543751,-23.4468755,-39.196877,-130.3830136,-22.381138200000002,-3.6577796,0.024252333333333334,0.010848266666666672,0.006888866666666667
2024-06-06 12:07:47.050,78.667,0.0,6.826,52.33469,4.861735,0.0,0.717249,3.803392,8.956335,9.450001,-23.489062750000002,-39.2671895,-130.39549286666667,-22.3571734,-3.6654012,0.02428606666666667,0.010074173333333339,0.006661613333333333
2024-06-06 12:07:47.062,78.667,0.0,6.826,52.33469,4.861735,0.0,0.735195,3.8057845,9.102297499999999,9.356251,-23.53125,-39.337502,-130.40797213333335,-22.333208600000003,-3.6730228,0.0243198,0.009300080000000002,0.00643436
2024-06-06 12:07:47.070,78.667,0.0,6.826,52.33469,4.861735,0.0,0.753141,3.808177,9.24826,9.2859385,-23.55000025,-39.337502,-130.42045140000002,-22.3092438,-3.6806444,0.024353533333333333,0.008525986666666673,0.006207106666666667
2024-06-06 12:07:47.090,78.667,0.0,6.826,52.33469,4.861735,0.0,0.627518,3.777071,9.29492,9.215626,-23.5687505,-39.337502,-130.43293066666666,-22.285279000000003,-3.688266,0.024387266666666668,0.007751893333333336,0.005979853333333333
2024-06-06 12:07:47.110,78.667,0.0,6.826,52.33469,4.861735,0.0,0.638285,3.713661,9.267402,9.1453135,-23.58750075,-39.337502,-130.44540993333334,-22.2613142,-3.6958876,0.024421,0.006977800000000006,0.0057526
2024-06-06 12:07:47.122,78.667,0.0,6.826,52.33469,4.861735,0.0,0.6598204999999999,3.7106700000000004,9.194421,9.075001,-23.606251,-39.337502,-130.4578892,-22.237349400000003,-3.7035092,0.024454733333333332,0.00620370666666667,0.005525346666666667
2024-06-06 12:07:47.129,78.667,0.0,6.826,52.33469,4.861735,0.0,0.681356,3.707679,9.12144,9.0225008,-23.6362508,-39.3637516,-130.47036846666668,-22.2133846,-3.7111308,0.024488466666666667,0.00542961333333334,0.005298093333333333
2024-06-06 12:07:47.150,78.667,0.0,6.826,52.33469,4.861735,0.0,0.605982,3.790231,9.188439,8.9700006,-23.6662506,-39.3900012,-130.48284773333333,-22.189419800000003,-3.7187524,0.0245222,0.004655520000000003,0.00507084
2024-06-06 12:07:47.163,78.667,0.0,6.826,52.33469,4.861735,0.0,0.565304,3.783651,9.2982095,8.9175004,-23.6962504,-39.4162508,-130.495327,-22.165455,-3.726374,0.024555933333333335,0.0038814266666666736,0.004843586666666667
2024-06-06 12:07:47.170,78.667,0.0,6.826,52.33469,4.861735,0.0,0.524626,3.777071,9.40798,8.8650002,-23.726250200000003,-39.4425004,-130.49832226666666,-22.162280266666667,-3.6211148666666664,0.024589666666666666,0.003107333333333337,0.004616333333333333
2024-06-06 12:07:47.182,78.667,0.0,6.826,52.33469,4.861735,0.0,0.558724,3.726223,9.5473625,8.8125,-23.75625,-39.46875,-130.50131753333335,-22.159105533333335,-3.5158557333333333,0.0246234,0.0023332400000000073,0.00438908
2024-06-06 12:07:47.190,78.667,0.0,6.826,52.33469,4.861735,0.0,0.592822,3.675375,9.686745,8.7890625,-23.746875000000003,-39.53437525,-130.5043128,-22.1559308,-3.4105966,0.024657133333333334,0.0015591466666666706,0.004161826666666667
2024-06-06 12:07:47.210,78.667,0.0,6.826,52.33469,4.861735,0.0,0.408574,3.655037,9.436694,8.765625,-23.7375,-39.6000005,-130.50730806666667,-22.15275606666667,-3.3053374666666664,0.02469086666666667,0.0007850533333333409,0.003934573333333333
2024-06-06 12:07:47.230,78.667,0.0,6.826,52.33469,4.861735,0.0,0.501895,3.677768,9.116654,8.7421875,-23.728125,-39.665625750000004,-130.51030333333333,-22.149581333333334,-3.2000783333333334,0.0247246,1.09600000000043e-05,0.00370732
2024-06-06 12:07:47.242,78.667,0.0,6.826,52.33469,4.861735,0.0,0.4103695,3.7082765,9.0017985,8.71875,-23.71875,-39.731251,-130.5132986,-22.1464066,-3.0948192,0.024758333333333334,-0.0007631333333333254,0.0034800666666666667
2024-06-06 12:07:47.250,78.667,0.0,6.826,52.33469,4.861735,0.0,0.318844,3.738785,8.886943,8.7703125,-23.71406275,-39.689063250000004,-130.51629386666667,-22.143231866666667,-2.989560066666667,0.024792066666666668,-0.001537226666666662,0.0032528133333333334
2024-06-06 12:07:47.270,78.667,0.0,6.826,52.33469,4.861735,0.0,0.324826,3.84048,8.804391,8.821875,-23.7093755,-39.6468755,-130.51928913333333,-22.140057133333332,-2.8843009333333334,0.024825800000000002,-0.0023113199999999917,0.00302556
2024-06-06 12:07:47.290,78.667,0.0,6.826,52.33469,4.861735,0.0,0.418146,3.866802,8.73141,8.873437500000001,-23.70468825,-39.60468775,-130.5222844,-22.1368824,-2.7790418,0.024859533333333333,-0.0030854133333333283,0.0027983066666666667
2024-06-06 12:07:47.302,78.667,0.0,6.826,52.33469,4.861735,0.0,0.421137,3.8422755,8.8378905,8.925,-23.700001,-39.5625,-130.52527966666668,-22.133707666666666,-2.673782666666667,0.024893266666666667,-0.003859506666666658,0.0025710533333333334
2024-06-06 12:07:47.310,78.667,0.0,6.826,52.33469,4.861735,0.0,0.424128,3.817749,8.944371,8.88750025,-23.68125075,-39.6328125,-130.52827493333334,-22.13053293333333,-2.5685235333333334,0.024927,-0.004633599999999995,0.0023438
2024-06-06 12:07:47.330,78.667,0.0,6.826,52.33469,4.861735,0.0,0.254237,3.713661,9.343374,8.8500005,-23.6625005,-39.703125,-130.5312702,-22.1273582,-2.4632644,0.024960733333333332,-0.005407693333333324,0.0021165466666666667
2024-06-06 12:07:47.350,78.667,0.0,6.826,52.33469,4.861735,0.0,0.299701,3.658626,9.47139,8.81250075,-23.64375025,-39.7734375,-130.53426546666665,-22.124183466666665,-2.358005266666667,0.024994466666666666,-0.006181786666666661,0.0018892933333333334
2024-06-06 12:07:47.362,78.667,0.0,6.826,52.33469,4.861735,0.0,0.342373,3.6693936666666667,9.456634333333334,8.775001,-23.625,-39.84375,-130.53726073333334,-22.121008733333333,-2.2527461333333334,0.0250282,-0.006955879999999991,0.00166204
2024-06-06 12:07:47.363,78.667,0.0,6.826,52.33469,4.861735,0.0,0.385045,3.6801613333333334,9.441878666666666,8.793751,-23.625,-39.88125,-130.540256,-22.117834,-2.147487,0.025061933333333335,-0.007729973333333327,0.0014347866666666667
2024-06-06 12:07:47.370,78.667,0.0,6.826,52.33469,4.861735,0.0,0.427717,3.690929,9.427123,8.812501,-23.625,-39.91875,-130.549698,-22.175303333333332,-2.1450237333333333,0.02509566666666667,-0.008504066666666664,0.0012075333333333334
2024-06-06 12:07:47.390,78.667,0.0,6.826,52.33469,4.861735,0.0,0.318844,3.693322,9.199206,8.831251,-23.625,-39.95625,-130.55913999999999,-22.232772666666666,-2.1425604666666667,0.0251294,-0.009278159999999994,0.00098028
2024-06-06 12:07:47.410,78.667,0.0,6.826,52.33469,4.861735,0.0,0.332004,3.802195,8.53161,8.850000999999999,-23.625,-39.99375,-130.568582,-22.290242,-2.1400972,0.025163133333333334,-0.01005225333333333,0.0007530266666666667
2024-06-06 12:07:47.422,78.667,0.0,6.826,52.33469,4.861735,0.0,0.39361900000000005,3.759124,9.034999500000001,8.868751,-23.625,-40.03125,-130.578024,-22.347711333333333,-2.1376339333333334,0.025196866666666668,-0.01082634666666666,0.0005257733333333334
2024-06-06 12:07:47.430,78.667,0.0,6.826,52.33469,4.861735,0.0,0.455234,3.716053,9.538389,8.91093825,-23.639063,-39.94218825,-130.587466,-22.405180666666666,-2.1351706666666668,0.0252306,-0.011600439999999997,0.00029852000000000004
2024-06-06 12:07:47.450,78.667,0.0,6.826,52.33469,4.861735,0.0,0.442074,3.729214,10.560722,8.953125499999999,-23.653126,-39.8531265,-130.59690799999998,-22.46265,-2.1327074,0.025264333333333333,-0.012374533333333326,7.12666666666667e-05
2024-06-06 12:07:47.470,78.667,0.0,6.826,52.33469,4.861735,0.0,0.406182,4.029513,9.638887,8.99531275,-23.667189,-39.764064749999996,-130.60635,-22.520119333333334,-2.1302441333333335,0.025298066666666667,-0.013148626666666663,-0.00015598666666666663
2024-06-06 12:07:47.482,78.667,0.0,6.826,52.33469,4.861735,0.0,0.438485,3.9451659999999995,9.125926,9.0375,-23.681252,-39.675003,-130.615792,-22.577588666666664,-2.1277808666666664,0.0253318,-0.013922719999999993,-0.00038323999999999997
2024-06-06 12:07:47.490,78.667,0.0,6.826,52.33469,4.861735,0.0,0.470788,3.860819,8.612965,9.12375,-23.7037518,-39.543752999999995,-130.625234,-22.635057999999997,-2.1253176,0.025365533333333336,-0.01469681333333333,-0.0006104933333333333
2024-06-06 12:07:47.510,78.667,0.0,6.826,52.33469,4.861735,0.0,0.20339,3.646662,8.206783,9.209999999999999,-23.7262516,-39.412502999999994,-130.63467599999998,-22.69252733333333,-2.122854333333333,0.025399266666666667,-0.015470906666666659,-0.0008377466666666666
2024-06-06 12:07:47.517,78.667,0.0,6.826,52.33469,4.861735,0.0,0.2491525,3.621537,8.201997500000001,9.29625,-23.7487514,-39.281253,-130.644118,-22.749996666666664,-2.1203910666666665,0.025433,-0.016245,-0.001065
2024-06-06 12:07:47.530,78.667,0.0,6.826,52.33469,4.861735,0.0,0.294915,3.596412,8.197212,9.3825,-23.771251200000002,-39.150003,-130.65356,-22.807465999999998,-2.1179278,0.02485244,-0.015783386666666666,-0.00081112
2024-06-06 12:07:47.542,78.667,0.0,6.826,52.33469,4.861735,0.0,0.3535395,3.709473,8.4074815,9.46875,-23.793751,-39.018753,-130.663002,-22.86493533333333,-2.1154645333333333,0.024271880000000003,-0.015321773333333332,-0.00055724
2024-06-06 12:07:47.550,78.667,0.0,6.826,52.33469,4.861735,0.0,0.412164,3.822534,8.617751,9.51,-23.793751,-38.958752399999995,-130.67244399999998,-22.922404666666665,-2.1130012666666667,0.023691320000000002,-0.014860159999999999,-0.0003033599999999999
2024-06-06 12:07:47.562,78.667,0.0,6.826,52.33469,4.861735,0.0,0.4319045,3.842275,8.9587285,9.55125,-23.793751,-38.8987518,-130.681886,-22.979874,-2.110538,0.02311076,-0.014398546666666666,-4.947999999999997e-05
2024-06-06 12:07:47.570,78.667,0.0,6.826,52.33469,4.861735,0.0,0.451645,3.862016,9.299706,9.592500000000001,-23.793751,-38.8387512,-130.69106192857143,-22.884235,-2.110675857142857,0.0225302,-0.013936933333333332,0.00020439999999999998
2024-06-06 12:07:47.590,78.667,0.0,6.826,52.33469,4.861735,0.0,0.268594,3.783053,9.629316,9.633750000000001,-23.793751,-38.7787506,-130.70023785714284,-22.788596,-2.1108137142857144,0.02194964,-0.013475319999999999,0.00045828000000000015
2024-06-06 12:07:47.602,78.667,0.0,6.826,52.33469,4.861735,0.0,0.2437685,3.7812580000000002,9.610772,9.675,-23.793751,-38.71875,-130.70941378571428,-22.692957,-2.1109515714285716,0.021369080000000002,-0.013013706666666666,0.0007121600000000001
2024-06-06 12:07:47.610,78.667,0.0,6.826,52.33469,4.861735,0.0,0.218943,3.779463,9.592228,9.703125,-23.807813250000002,-38.71875,-130.7185897142857,-22.597317999999998,-2.1110894285714283,0.02078852,-0.012552093333333333,0.00096604
2024-06-06 12:07:47.630,78.667,0.0,6.826,52.33469,4.861735,0.0,0.323629,3.74716,9.530014,9.73125,-23.8218755,-38.71875,-130.72776564285715,-22.501679,-2.1112272857142855,0.02020796,-0.012090479999999999,0.0012199200000000002
2024-06-06 12:07:47.650,78.667,0.0,6.826,52.33469,4.861735,0.0,0.334397,3.755535,9.405587,9.759375,-23.83593775,-38.71875,-130.73694157142856,-22.406039999999997,-2.1113651428571427,0.019627400000000003,-0.011628866666666666,0.0014738
2024-06-06 12:07:47.662,78.667,0.0,6.826,52.33469,4.861735,0.0,0.259322,3.85065,9.279067000000001,9.7875,-23.85,-38.71875,-130.7461175,-22.310401,-2.111503,0.019046840000000002,-0.011167253333333332,0.00172768
2024-06-06 12:07:47.670,78.667,0.0,6.826,52.33469,4.861735,0.0,0.184247,3.945765,9.152547,9.825,-23.878125500000003,-38.66718775,-130.75529342857143,-22.214762,-2.111640857142857,0.01846628,-0.010705639999999999,0.0019815600000000003
2024-06-06 12:07:47.690,78.667,0.0,6.826,52.33469,4.861735,0.0,0.161516,4.065406,8.847462,9.8625,-23.906251,-38.6156255,-130.76446935714284,-22.119123,-2.1117787142857143,0.01788572,-0.010244026666666666,0.00223544
2024-06-06 12:07:47.710,78.667,0.0,6.826,52.33469,4.861735,0.0,0.449252,3.726821,8.668,9.9,-23.9343765,-38.564063250000004,-130.77364528571428,-22.023484,-2.1119165714285715,0.01730516,-0.009782413333333333,0.00248932
2024-06-06 12:07:47.722,78.667,0.0,6.826,52.33469,4.861735,0.0,0.48095699999999997,3.5976084999999998,8.900701999999999,9.9375,-23.962502,-38.512501,-130.78282121428572,-21.927844999999998,-2.112054428571428,0.016724600000000003,-0.0093208,0.0027432
2024-06-06 12:07:47.730,78.667,0.0,6.826,52.33469,4.861735,0.0,0.512662,3.468396,9.133404,9.9300002,-23.9587516,-38.542501200000004,-130.79199714285716,-21.832206,-2.1121922857142854,0.016144040000000002,-0.008859186666666666,0.00299708
2024-06-06 12:07:47.750,78.667,0.0,6.826,52.33469,4.861735,0.0,0.517448,3.360121,9.041281,9.9225004,-23.9550012,-38.5725014,-130.80117307142856,-21.736566999999997,-2.1123301428571426,0.015563480000000001,-0.008397573333333333,0.00325096
2024-06-06 12:07:47.761,78.667,0.0,6.826,52.33469,4.861735,0.0,0.4025925,3.392125,9.0957175,9.915000599999999,-23.9512508,-38.602501600000004,-130.810349,-21.640928,-2.112468,0.014982920000000002,-0.007935959999999999,0.0035048400000000004
2024-06-06 12:07:47.770,78.667,0.0,6.826,52.33469,4.861735,0.0,0.287737,3.424129,9.150154,9.9075008,-23.947500400000003,-38.6325018,-130.8998117857143,-21.620647357142857,-2.207678714285714,0.014402360000000003,-0.007474346666666666,0.00375872
2024-06-06 12:07:47.782,78.667,0.0,6.826,52.33469,4.861735,0.0,0.03379850000000001,3.499503,9.217751,9.900001,-23.94375,-38.662502,-130.98927457142858,-21.600366714285713,-2.3028894285714285,0.013821800000000002,-0.007012733333333333,0.0040126
2024-06-06 12:07:47.790,78.667,0.0,6.826,52.33469,4.861735,0.0,-0.22014,3.574877,9.285348,9.881250999999999,-23.93906275,-38.62500175,-131.07873735714287,-21.58008607142857,-2.3981001428571425,0.013241240000000001,-0.006551119999999999,0.0042664800000000004
2024-06-06 12:07:47.810,78.667,0.0,6.826,52.33469,4.861735,0.0,-0.48335,3.591627,9.275777,9.862501,-23.9343755,-38.5875015,-131.16820014285713,-21.559805428571426,-2.493310857142857,0.012660680000000002,-0.006089506666666666,0.00452036
2024-06-06 12:07:47.830,78.667,0.0,6.826,52.33469,4.861735,0.0,-0.050249,3.710072,8.750552,9.843751000000001,-23.92968825,-38.55000125,-131.25766292857142,-21.539524785714285,-2.588521571428571,0.012080120000000003,-0.005627893333333333,0.00477424
2024-06-06 12:07:47.842,78.667,0.0,6.826,52.33469,4.861735,0.0,0.7190435000000001,3.7591245,8.924031500000002,9.825001,-23.925001,-38.512501,-131.3471257142857,-21.51924414285714,-2.6837322857142856,0.011499560000000002,-0.005166279999999999,0.0050281200000000005
2024-06-06 12:07:47.850,78.667,0.0,6.826,52.33469,4.861735,0.0,1.488336,3.808177,9.097511,9.750001000000001,-23.92031325,-38.470313250000004,-131.4365885,-21.4989635,-2.778943,0.010919000000000002,-0.004704666666666666,0.005282
2024-06-06 12:07:47.870,78.667,0.0,6.826,52.33469,4.861735,0.0,1.776671,3.582056,10.599008,9.675001,-23.9156255,-38.4281255,-131.5260512857143,-21.478682857142857,-2.8741537142857143,0.010338440000000003,-0.004243053333333333,0.00553588
2024-06-06 12:07:47.890,78.667,0.0,6.826,52.33469,4.861735,0.0,1.231705,3.476771,10.930414,9.600000999999999,-23.910937750000002,-38.38593775,-131.61551407142858,-21.458402214285712,-2.9693644285714287,0.009757880000000003,-0.0037814400000000005,0.00578976
2024-06-06 12:07:47.902,78.667,0.0,6.826,52.33469,4.861735,0.0,1.2017950000000002,3.4893335,10.3157575,9.525001,-23.90625,-38.34375,-131.70497685714287,-21.43812157142857,-3.0645751428571426,0.009177320000000003,-0.003319826666666666,0.00604364
2024-06-06 12:07:47.910,78.667,0.0,6.826,52.33469,4.861735,0.0,1.171885,3.501896,9.701101,9.4575008,-23.8837502,-38.45625,-131.79443964285713,-21.417840928571426,-3.1597858571428574,0.008596760000000002,-0.0028582133333333332,0.00629752
2024-06-06 12:07:47.930,78.667,0.0,6.826,52.33469,4.861735,0.0,0.884746,3.202195,7.759326,9.3900006,-23.8612504,-38.56875,-131.88390242857142,-21.397560285714285,-3.2549965714285714,0.008016200000000005,-0.0023966000000000005,0.0065514
2024-06-06 12:07:47.950,78.667,0.0,6.826,52.33469,4.861735,0.0,0.500698,3.360121,7.585846,9.3225004,-23.8387506,-38.68125,-131.9733652142857,-21.37727964285714,-3.3502072857142857,0.007435640000000004,-0.001934986666666666,0.00680528
2024-06-06 12:07:47.961,78.667,0.0,6.826,52.33469,4.861735,0.0,0.27637100000000003,3.445664333333333,7.9521473333333335,9.2550002,-23.8162508,-38.79375,-132.062828,-21.356999,-3.445418,0.006855080000000003,-0.0014733733333333332,0.00705916
2024-06-06 12:07:47.962,78.667,0.0,6.826,52.33469,4.861735,0.0,0.052044000000000035,3.5312076666666665,8.318448666666667,9.1875,-23.793751,-38.90625,-132.04917187499998,-21.4015460625,-3.3127044375,0.006274520000000002,-0.0010117600000000004,0.00731304
2024-06-06 12:07:47.970,78.667,0.0,6.826,52.33469,4.861735,0.0,-0.172283,3.616751,8.68475,9.1575,-23.7487508,-38.9925004,-132.03551575,-21.446093124999997,-3.179990875,0.005693960000000001,-0.0005501466666666677,0.0075669199999999995
2024-06-06 12:07:47.990,78.667,0.0,6.826,52.33469,4.861735,0.0,-0.562313,3.787838,10.261022,9.1275,-23.7037506,-39.0787508,-132.021859625,-21.4906401875,-3.0472773125000003,0.005113400000000004,-8.853333333333491e-05,0.0078208
2024-06-06 12:07:48.000,76.624,0.0,6.74,52.334687,4.861747,0.0,-0.430708,3.933202,10.247861,9.0975,-23.658750400000002,-39.1650012,-132.0082035,-21.53518725,-2.91456375,0.004532840000000003,0.00037308000000000133,0.00807468
2024-06-06 12:07:48.010,76.624,0.0,6.74,52.334687,4.861747,0.0,-0.299103,4.078566,10.2347,9.067499999999999,-23.613750200000002,-39.2512516,-131.994547375,-21.579734312499998,-2.7818501875,0.0039522800000000025,0.0008346933333333341,0.00832856
2024-06-06 12:07:48.022,76.624,0.0,6.74,52.334687,4.861747,0.0,-0.1495515,3.8189450000000003,10.063613499999999,9.0375,-23.56875,-39.337502,-131.98089125,-21.624281375,-2.649136625,0.003371720000000005,0.0012963066666666669,0.00858244
2024-06-06 12:07:48.030,76.624,0.0,6.74,52.334687,4.861747,0.0,0.0,3.559324,9.892527,9.09375025,-23.559375000000003,-39.323439,-131.967235125,-21.6688284375,-2.5164230625000004,0.0027911600000000043,0.0017579199999999996,0.00883632
2024-06-06 12:07:48.050,76.624,0.0,6.74,52.334687,4.861747,0.0,0.072981,3.737589,9.254242,9.1500005,-23.55,-39.309376,-131.953579,-21.713375499999998,-2.3837095,0.0022106000000000035,0.0022195333333333324,0.0090902
2024-06-06 12:07:48.070,76.624,0.0,6.74,52.334687,4.861747,0.0,0.007178,3.976871,8.845069,9.20625075,-23.540625,-39.295313,-131.939922875,-21.7579225625,-2.2509959375,0.0016300400000000027,0.002681146666666665,0.00934408
2024-06-06 12:07:48.082,76.624,0.0,6.74,52.334687,4.861747,0.0,0.18873349999999997,3.866203,8.7236335,9.262501,-23.53125,-39.28125,-131.92626675,-21.802469625,-2.118282375,0.001049480000000002,0.0031427600000000014,0.00959796
2024-06-06 12:07:48.090,76.624,0.0,6.74,52.334687,4.861747,0.0,0.370289,3.755535,8.602198,9.2859385,-23.512500250000002,-39.220313000000004,-131.912610625,-21.847016687500002,-1.9855688125000002,0.0004689200000000046,0.003604373333333334,0.00985184
2024-06-06 12:07:48.110,76.624,0.0,6.74,52.334687,4.861747,0.0,0.428913,3.487539,8.46461,9.309376,-23.4937505,-39.159376,-131.8989545,-21.89156375,-1.8528552500000002,-0.00011163999999999619,0.004065986666666667,0.01010572
2024-06-06 12:07:48.130,76.624,0.0,6.74,52.334687,4.861747,0.0,0.334397,3.527021,9.07478,9.3328135,-23.47500075,-39.098439,-131.88529837500002,-21.9361108125,-1.7201416875000002,-0.000692199999999997,0.0045276,0.0103596
2024-06-06 12:07:48.142,76.624,0.0,6.74,52.334687,4.861747,0.0,0.2258225,3.6035909999999998,9.212666500000001,9.356251,-23.456251,-39.037502,-131.87164225,-21.980657875000002,-1.5874281250000002,-0.0012727599999999943,0.0049892133333333324,0.01061348
2024-06-06 12:07:48.150,76.624,0.0,6.74,52.334687,4.861747,0.0,0.117248,3.680161,9.350553,9.333751,-23.430001,-39.003752000000006,-131.85798612500002,-22.0252049375,-1.4547145625000002,-0.0018533199999999951,0.005450826666666665,0.01086736
2024-06-06 12:07:48.161,76.624,0.0,6.74,52.334687,4.861747,0.0,0.111266,3.7130625,9.359525999999999,9.311251,-23.403751,-38.970002,-131.84433,-22.069752,-1.322001,-0.002433879999999996,0.0059124400000000014,0.011121240000000001
2024-06-06 12:07:48.170,76.624,0.0,6.74,52.334687,4.861747,0.0,0.105284,3.745964,9.368499,9.288751,-23.377501000000002,-38.936252,-131.83699242857145,-22.070509642857143,-1.3072185,-0.0030144399999999967,0.006374053333333334,0.01137512
2024-06-06 12:07:48.190,76.624,0.0,6.74,52.334687,4.861747,0.0,0.089731,3.842873,9.391231,9.266251,-23.351251,-38.902502,-131.82965485714286,-22.07126728571429,-1.292436,-0.0035949999999999975,0.006835666666666667,0.011629
2024-06-06 12:07:48.201,76.624,0.0,6.74,52.334687,4.861747,0.0,0.144766,3.7944185,9.301200999999999,9.243751,-23.325001,-38.868752,-131.8223172857143,-22.07202492857143,-1.2776535,-0.004175559999999995,0.00729728,0.01188288
2024-06-06 12:07:48.210,76.624,0.0,6.74,52.334687,4.861747,0.0,0.199801,3.745964,9.211171,9.206250749999999,-23.3484385,-38.873439250000004,-131.81497971428573,-22.072782571428572,-1.262871,-0.004756119999999996,0.0077588933333333325,0.01213676
2024-06-06 12:07:48.230,76.624,0.0,6.74,52.334687,4.861747,0.0,0.185444,3.722036,9.285348,9.1687505,-23.371876,-38.8781265,-131.80764214285716,-22.073540214285714,-1.2480885,-0.005336679999999996,0.008220506666666665,0.01239064
2024-06-06 12:07:48.250,76.624,0.0,6.74,52.334687,4.861747,0.0,0.184247,3.751946,9.223135,9.13125025,-23.3953135,-38.88281375,-131.80030457142857,-22.07429785714286,-1.233306,-0.005917239999999994,0.008682119999999998,0.01264452
2024-06-06 12:07:48.261,76.624,0.0,6.74,52.334687,4.861747,0.0,0.2371885,3.7537405,9.100503,9.09375,-23.418751,-38.887501,-131.792967,-22.0750555,-1.2185234999999999,-0.0064977999999999946,0.009143733333333334,0.0128984
2024-06-06 12:07:48.270,76.624,0.0,6.74,52.334687,4.861747,0.0,0.29013,3.755535,8.977871,9.15,-23.428126,-38.8640635,-131.78562942857144,-22.075813142857143,-1.203741,-0.007078359999999995,0.009605346666666667,0.01315228
2024-06-06 12:07:48.290,76.624,0.0,6.74,52.334687,4.861747,0.0,0.230907,3.768696,9.06162,9.20625,-23.437501,-38.840626,-131.77829185714285,-22.07657078571429,-1.1889585,-0.007658919999999996,0.01006696,0.01340616
2024-06-06 12:07:48.310,76.624,0.0,6.74,52.334687,4.861747,0.0,0.189033,3.686143,9.133404,9.2625,-23.446876000000003,-38.8171885,-131.77095428571428,-22.07732842857143,-1.1741759999999999,-0.008239479999999997,0.010528573333333333,0.01366004
2024-06-06 12:07:48.321,76.624,0.0,6.74,52.334687,4.861747,0.0,0.1585245,3.692125,9.135796500000001,9.31875,-23.456251,-38.793751,-131.76361671428572,-22.078086071428572,-1.1593935,-0.008820039999999998,0.010990186666666665,0.01391392
2024-06-06 12:07:48.330,76.624,0.0,6.74,52.334687,4.861747,0.0,0.128016,3.698107,9.138189,9.38625,-23.475001000000002,-38.8275012,-131.75627914285715,-22.078843714285714,-1.144611,-0.009400599999999992,0.011451799999999998,0.0141678
2024-06-06 12:07:48.350,76.624,0.0,6.74,52.334687,4.861747,0.0,0.119641,3.761517,9.145369,9.45375,-23.493751000000003,-38.8612514,-131.74894157142856,-22.07960135714286,-1.1298285,-0.009981159999999992,0.011913413333333334,0.014421680000000001
2024-06-06 12:07:48.361,76.624,0.0,6.74,52.334687,4.861747,0.0,0.1639085,3.7214375,9.147162999999999,9.52125,-23.512501,-38.8950016,-131.741604,-22.080359,-1.115046,-0.010561719999999993,0.012375026666666667,0.01467556
2024-06-06 12:07:48.370,76.624,0.0,6.74,52.334687,4.861747,0.0,0.208176,3.681358,9.148957,9.58875,-23.531251,-38.9287518,-131.735621625,-22.0512424375,-1.1376009375,-0.011142279999999994,0.01283664,0.014929439999999999
2024-06-06 12:07:48.381,76.624,0.0,6.74,52.334687,4.861747,0.0,0.21714899999999998,3.652046,9.218947499999999,9.65625,-23.550001,-38.962502,-131.72963925,-22.022125875,-1.160155875,-0.011722839999999995,0.013298253333333333,0.01518332
2024-06-06 12:07:48.390,76.624,0.0,6.74,52.334687,4.861747,0.0,0.226122,3.622734,9.288938,9.74062525,-23.54531325,-38.92968975,-131.723656875,-21.9930093125,-1.1827108124999999,-0.012303399999999996,0.013759866666666665,0.015437200000000002
2024-06-06 12:07:48.410,76.624,0.0,6.74,52.334687,4.861747,0.0,0.175872,3.704089,9.29492,9.8250005,-23.5406255,-38.8968775,-131.7176745,-21.96389275,-1.20526575,-0.012883959999999996,0.014221479999999998,0.01569108
2024-06-06 12:07:48.430,76.624,0.0,6.74,52.334687,4.861747,0.0,0.12323,3.729214,9.235099,9.909375749999999,-23.535937750000002,-38.864065249999996,-131.71169212499998,-21.934776187500002,-1.2278206875,-0.013464519999999997,0.014683093333333331,0.01594496
2024-06-06 12:07:48.441,76.624,0.0,6.74,52.334687,4.861747,0.0,0.129212,3.725625,9.156734,9.993751,-23.53125,-38.831253,-131.70570974999998,-21.905659625000002,-1.250375625,-0.014045079999999998,0.015144706666666664,0.01619884
2024-06-06 12:07:48.450,76.624,0.0,6.74,52.334687,4.861747,0.0,0.135194,3.722036,9.078369,9.951563499999999,-23.5687505,-38.910940249999996,-131.69972737499998,-21.8765430625,-1.2729305625,-0.014625639999999992,0.015606319999999996,0.01645272
2024-06-06 12:07:48.470,76.624,0.0,6.74,52.334687,4.861747,0.0,0.199801,3.694518,9.139386,9.909376,-23.606251,-38.9906275,-131.69374499999998,-21.8474265,-1.2954854999999998,-0.015206199999999993,0.01606793333333333,0.0167066
2024-06-06 12:07:48.490,76.624,0.0,6.74,52.334687,4.861747,0.0,0.179462,3.633501,9.355338,9.867188500000001,-23.6437515,-39.07031475,-131.687762625,-21.8183099375,-1.3180404374999999,-0.015786759999999993,0.01652954666666667,0.01696048
2024-06-06 12:07:48.501,76.624,0.0,6.74,52.334687,4.861747,0.0,0.2162515,3.6580275,9.319745000000001,9.825001,-23.681252,-39.150002,-131.68178025,-21.789193375,-1.340595375,-0.016367319999999994,0.01699116,0.01721436
2024-06-06 12:07:48.510,76.624,0.0,6.74,52.334687,4.861747,0.0,0.253041,3.682554,9.284152,9.7537508,-23.7075016,-39.258752,-131.675797875,-21.7600768125,-1.3631503125,-0.016947879999999995,0.017452773333333334,0.01746824
2024-06-06 12:07:48.530,76.624,0.0,6.74,52.334687,4.861747,0.0,0.268594,3.633501,9.206385,9.682500600000001,-23.7337512,-39.367502,-131.6698155,-21.730960250000003,-1.38570525,-0.017528439999999996,0.017914386666666667,0.01772212
2024-06-06 12:07:48.531,76.624,0.0,6.74,52.334687,4.861747,0.0,0.26081750000000004,3.57727,9.0735835,9.6112504,-23.7600008,-39.476252,-131.663833125,-21.701843687500002,-1.4082601874999998,-0.018109,0.018376,0.017976
2024-06-06 12:07:48.550,76.624,0.0,6.74,52.334687,4.861747,0.0,0.253041,3.521039,8.940782,9.5400002,-23.7862504,-39.585002,-131.65785075,-21.672727125,-1.430815125,-0.017990243243243245,0.01784877027027027,0.01747216216216216
2024-06-06 12:07:48.560,76.624,0.0,6.74,52.334687,4.861747,0.0,0.275374,3.522235333333333,8.933204666666667,9.46875,-23.8125,-39.693752,-131.651868375,-21.6436105625,-1.4533700625,-0.017871486486486485,0.01732154054054054,0.016968324324324324
2024-06-06 12:07:48.560,76.624,0.0,6.74,52.334687,4.861747,0.0,0.297707,3.5234316666666667,8.925627333333333,9.4237502,-23.8162502,-39.828752,-131.645886,-21.614494,-1.475925,-0.01775272972972973,0.01679431081081081,0.016464486486486487
2024-06-06 12:07:48.570,76.624,0.0,6.74,52.334687,4.861747,0.0,0.32004,3.524628,8.91805,9.3787504,-23.8200004,-39.963752,-131.64607035714286,-21.575115642857142,-1.4894100714285714,-0.017633972972972974,0.016267081081081082,0.01596064864864865
2024-06-06 12:07:48.590,76.624,0.0,6.74,52.334687,4.861747,0.0,0.335593,3.63709,9.309875,9.3337506,-23.8237506,-40.098752000000005,-131.6462547142857,-21.535737285714287,-1.5028951428571429,-0.017515216216216215,0.01573985135135135,0.01545681081081081
2024-06-06 12:07:48.610,76.624,0.0,6.74,52.334687,4.861747,0.0,0.329611,3.723232,9.539586,9.288750799999999,-23.827500800000003,-40.233752,-131.64643907142857,-21.49635892857143,-1.5163802142857143,-0.01739645945945946,0.015212621621621621,0.014952972972972971
2024-06-06 12:07:48.620,76.624,0.0,6.74,52.334687,4.861747,0.0,0.33559300000000003,3.7339995,9.522836,9.243751,-23.831251,-40.368752,-131.64662342857142,-21.45698057142857,-1.5298652857142856,-0.017277702702702704,0.014685391891891893,0.014449135135135134
2024-06-06 12:07:48.630,76.624,0.0,6.74,52.334687,4.861747,0.0,0.341575,3.744767,9.506086,9.1734385,-23.84062625,-40.490626750000004,-131.6468077857143,-21.417602214285715,-1.543350357142857,-0.017158945945945945,0.014158162162162162,0.013945297297297297
2024-06-06 12:07:48.650,76.624,0.0,6.74,52.334687,4.861747,0.0,0.499502,3.619144,9.284152,9.103126,-23.8500015,-40.6125015,-131.64699214285713,-21.378223857142856,-1.5568354285714285,-0.01704018918918919,0.013630932432432432,0.01344145945945946
2024-06-06 12:07:48.670,76.624,0.0,6.74,52.334687,4.861747,0.0,0.470788,3.556931,9.195618,9.0328135,-23.859376750000003,-40.73437625,-131.6471765,-21.338845499999998,-1.5703205,-0.016921432432432434,0.013103702702702703,0.012937621621621622
2024-06-06 12:07:48.680,76.624,0.0,6.74,52.334687,4.861747,0.0,0.380459,3.6035909999999998,9.1190475,8.962501,-23.868752,-40.856251,-131.64736085714287,-21.299467142857143,-1.5838055714285715,-0.016802675675675675,0.012576472972972973,0.012433783783783783
2024-06-06 12:07:48.690,76.624,0.0,6.74,52.334687,4.861747,0.0,0.29013,3.650251,9.042477,8.915626,-23.821877,-40.98750125,-131.6475452142857,-21.260088785714284,-1.597290642857143,-0.01668391891891892,0.012049243243243243,0.011929945945945946
2024-06-06 12:07:48.710,76.624,0.0,6.74,52.334687,4.861747,0.0,0.183051,3.690929,8.99821,8.868751,-23.775002,-41.1187515,-131.64772957142858,-21.22071042857143,-1.6107757142857144,-0.016565162162162164,0.011522013513513514,0.011426108108108108
2024-06-06 12:07:48.730,76.624,0.0,6.74,52.334687,4.861747,0.0,0.268594,3.614359,9.346964,8.821876,-23.728127,-41.25000175,-131.64791392857143,-21.18133207142857,-1.6242607857142857,-0.016446405405405404,0.010994783783783784,0.01092227027027027
2024-06-06 12:07:48.740,76.624,0.0,6.74,52.334687,4.861747,0.0,0.285344,3.4674994999999997,9.6077815,8.775001,-23.681252,-41.381252,-131.6480982857143,-21.141953714285712,-1.6377458571428571,-0.01632764864864865,0.010467554054054055,0.010418432432432432
2024-06-06 12:07:48.750,76.624,0.0,6.74,52.334687,4.861747,0.0,0.302094,3.32064,9.868599,8.7525008,-23.6775016,-41.460002,-131.64828264285714,-21.102575357142857,-1.6512309285714286,-0.016208891891891893,0.009940324324324325,0.009914594594594595
2024-06-06 12:07:48.759,76.624,0.0,6.74,52.334687,4.861747,0.0,0.20368899999999998,3.3403805,9.772288,8.7300006,-23.6737512,-41.538752,-131.648467,-21.063197,-1.664716,-0.016090135135135134,0.009413094594594594,0.009410756756756757
2024-06-06 12:07:48.770,76.624,0.0,6.74,52.334687,4.861747,0.0,0.105284,3.360121,9.675977,8.707500399999999,-23.6700008,-41.617502,-131.64578471428572,-21.082482785714284,-1.6451385714285716,-0.01597137837837838,0.008885864864864866,0.00890691891891892
2024-06-06 12:07:48.790,76.624,0.0,6.74,52.334687,4.861747,0.0,0.081356,3.476771,9.115458,8.6850002,-23.666250400000003,-41.696252,-131.64310242857144,-21.101768571428572,-1.625561142857143,-0.015852621621621623,0.008358635135135135,0.00840308108108108
2024-06-06 12:07:48.800,76.624,0.0,6.74,52.334687,4.861747,0.0,0.049651,3.470789,9.1429755,8.6625,-23.6625,-41.775002,-131.64042014285715,-21.121054357142857,-1.6059837142857143,-0.015733864864864864,0.007831405405405407,0.007899243243243243
2024-06-06 12:07:48.810,76.624,0.0,6.74,52.334687,4.861747,0.0,0.017946,3.464807,9.170493,8.64375025,-23.620313000000003,-41.821877,-131.63773785714287,-21.14034014285714,-1.5864062857142858,-0.015615108108108108,0.007304175675675676,0.007395405405405406
2024-06-06 12:07:48.830,76.624,0.0,6.74,52.334687,4.861747,0.0,0.070588,3.512664,9.207582,8.625000499999999,-23.578126,-41.868752,-131.63505557142858,-21.159625928571426,-1.5668288571428572,-0.015496351351351351,0.006776945945945946,0.006891567567567567
2024-06-06 12:07:48.850,76.624,0.0,6.74,52.334687,4.861747,0.0,0.287737,3.565306,9.12503,8.60625075,-23.535939,-41.915627,-131.6323732857143,-21.178911714285714,-1.5472514285714287,-0.015377594594594594,0.0062497162162162175,0.00638772972972973
2024-06-06 12:07:48.860,76.624,0.0,6.74,52.334687,4.861747,0.0,0.30508500000000005,3.5898325,9.157931000000001,8.587501,-23.493752,-41.962502,-131.629691,-21.1981975,-1.5276740000000002,-0.015258837837837838,0.005722486486486487,0.005883891891891892
2024-06-06 12:07:48.870,76.624,0.0,6.74,52.334687,4.861747,0.0,0.322433,3.614359,9.190832,8.587501,-23.493752,-41.9718765,-131.62700871428572,-21.217483285714284,-1.5080965714285715,-0.01514008108108108,0.005195256756756757,0.005380054054054055
2024-06-06 12:07:48.890,76.624,0.0,6.74,52.334687,4.861747,0.0,0.305683,3.64068,9.046066,8.587501,-23.493752,-41.981251,-131.62432642857144,-21.236769071428572,-1.488519142857143,-0.015021324324324323,0.004668027027027028,0.004876216216216218
2024-06-06 12:07:48.910,76.624,0.0,6.74,52.334687,4.861747,0.0,0.296112,3.561717,9.020942,8.587501,-23.493752,-41.9906255,-131.62164414285715,-21.256054857142857,-1.4689417142857144,-0.014902567567567568,0.004140797297297298,0.004372378378378379
2024-06-06 12:07:48.920,76.624,0.0,6.74,52.334687,4.861747,0.0,0.2455635,3.583252,9.074182,8.587501,-23.493752,-42.0,-131.61896185714286,-21.27534064285714,-1.4493642857142859,-0.01478381081081081,0.0036135675675675674,0.0038685405405405413
2024-06-06 12:07:48.930,76.624,0.0,6.74,52.334687,4.861747,0.0,0.195015,3.604787,9.127422,8.5762508,-23.4787518,-42.0450004,-131.61627957142858,-21.294626428571426,-1.4297868571428571,-0.014665054054054053,0.003086337837837839,0.003364702702702704
2024-06-06 12:07:48.950,76.624,0.0,6.74,52.334687,4.861747,0.0,0.094516,3.632305,9.479765,8.5650006,-23.463751600000002,-42.0900008,-131.6135972857143,-21.313912214285715,-1.4102094285714286,-0.014546297297297298,0.00255910810810811,0.002860864864864865
2024-06-06 12:07:48.959,76.624,0.0,6.74,52.334687,4.861747,0.0,0.082552,3.6370905000000002,9.488140000000001,8.5537504,-23.4487514,-42.135001200000005,-131.610915,-21.333198,-1.390632,-0.01442754054054054,0.002031878378378378,0.0023570270270270276
2024-06-06 12:07:48.970,76.624,0.0,6.74,52.334687,4.861747,0.0,0.070588,3.641876,9.496515,8.5425002,-23.4337512,-42.180001600000004,-131.52825513333335,-21.281124866666666,-1.376487,-0.014308783783783783,0.0015046486486486495,0.0018531891891891902
2024-06-06 12:07:48.979,76.624,0.0,6.74,52.334687,4.861747,0.0,0.134596,3.63051,9.3586285,8.53125,-23.418751,-42.225002,-131.44559526666666,-21.229051733333332,-1.3623420000000002,-0.014190027027027027,0.0009774189189189209,0.001349351351351353
2024-06-06 12:07:48.990,76.624,0.0,6.74,52.334687,4.861747,0.0,0.198604,3.619144,9.220742,8.52,-23.362501,-42.2587522,-131.3629354,-21.176978599999998,-1.348197,-0.01407127027027027,0.00045018918918918877,0.0008455135135135156
2024-06-06 12:07:49.000,72.881,0.0,6.434,52.334672,4.861761,0.0,0.218644,3.574877,9.156136,8.50875,-23.306251,-42.292502400000004,-131.28027553333334,-21.124905466666668,-1.334052,-0.013952513513513513,-7.704054054053985e-05,0.0003416756756756782
2024-06-06 12:07:49.010,72.881,0.0,6.434,52.334672,4.861761,0.0,0.238684,3.53061,9.09153,8.4975,-23.250001,-42.3262526,-131.19761566666668,-21.072832333333334,-1.3199070000000002,-0.013833756756756757,-0.0006042702702702685,-0.00016216216216215912
2024-06-06 12:07:49.030,72.881,0.0,6.434,52.334672,4.861761,0.0,0.183051,3.516253,9.254242,8.48625,-23.193751,-42.3600028,-131.1149558,-21.0207592,-1.305762,-0.013715,-0.0011315000000000006,-0.0006659999999999999
2024-06-06 12:07:49.040,72.881,0.0,6.434,52.334672,4.861761,0.0,0.19142599999999999,3.5192439999999996,9.196814,8.475,-23.137501,-42.393753,-131.03229593333333,-20.968686066666667,-1.291617,-0.013596243243243242,-0.0016587297297297292,-0.0011698378378378373
2024-06-06 12:07:49.050,72.881,0.0,6.434,52.334672,4.861761,0.0,0.199801,3.522235,9.139386,8.475,-23.1234385,-42.435939749999996,-130.94963606666667,-20.916612933333333,-1.2774720000000002,-0.013477486486486487,-0.002185959459459458,-0.0016736756756756746
2024-06-06 12:07:49.070,72.881,0.0,6.434,52.334672,4.861761,0.0,0.107677,3.499503,9.160921,8.475,-23.109376,-42.4781265,-130.8669762,-20.8645398,-1.263327,-0.01335872972972973,-0.0027131891891891864,-0.002177513513513512
2024-06-06 12:07:49.090,72.881,0.0,6.434,52.334672,4.861761,0.0,0.014357,3.565306,9.343374,8.475,-23.095313500000003,-42.52031325,-130.78431633333332,-20.812466666666666,-1.249182,-0.013239972972972972,-0.0032404189189189185,-0.0026813513513513493
2024-06-06 12:07:49.100,72.881,0.0,6.434,52.334672,4.861761,0.0,0.0239285,3.583252,9.403195,8.475,-23.081251,-42.5625,-130.70165646666666,-20.760393533333332,-1.2350370000000002,-0.013121216216216217,-0.003767648648648647,-0.0031851891891891866
2024-06-06 12:07:49.110,72.881,0.0,6.434,52.334672,4.861761,0.0,0.0335,3.601198,9.463016,8.49375,-23.062501,-42.6075004,-130.6189966,-20.7083204,-1.220892,-0.01300245945945946,-0.004294878378378376,-0.003689027027027024
2024-06-06 12:07:49.130,72.881,0.0,6.434,52.334672,4.861761,0.0,0.214158,3.424129,9.42473,8.5125,-23.043751,-42.6525008,-130.53633673333334,-20.656247266666668,-1.206747,-0.012883702702702702,-0.004822108108108108,-0.004192864864864865
2024-06-06 12:07:49.150,72.881,0.0,6.434,52.334672,4.861761,0.0,0.306879,3.323032,9.355338,8.53125,-23.025001000000003,-42.697501200000005,-130.45367686666665,-20.604174133333334,-1.1926020000000002,-0.012764945945945946,-0.0053493378378378365,-0.004696702702702702
2024-06-06 12:07:49.158,72.881,0.0,6.434,52.334672,4.861761,0.0,0.27916233333333335,3.3441686666666666,9.367701,8.549999999999999,-23.006251000000002,-42.742501600000004,-130.371017,-20.552101,-1.178457,-0.012646189189189189,-0.005876567567567565,-0.0052005405405405394
2024-06-06 12:07:49.160,72.881,0.0,6.434,52.334672,4.861761,0.0,0.2514456666666667,3.3653053333333336,9.380063999999999,8.56875,-22.987501,-42.787502,-130.32369566666665,-20.5653012,-1.4281478,-0.012527432432432432,-0.006403797297297297,-0.005704378378378377
2024-06-06 12:07:49.170,72.881,0.0,6.434,52.334672,4.861761,0.0,0.223729,3.386442,9.392427,8.59687525,-22.99218825,-42.815627000000006,-130.27637433333334,-20.5785014,-1.6778386,-0.012408675675675676,-0.006931027027027026,-0.006208216216216214
2024-06-06 12:07:49.190,72.881,0.0,6.434,52.334672,4.861761,0.0,0.180658,3.469593,9.535996,8.625000499999999,-22.9968755,-42.843752,-130.229053,-20.5917016,-1.9275294,-0.012289918918918919,-0.007458256756756754,-0.0067120540540540514
2024-06-06 12:07:49.210,72.881,0.0,6.434,52.334672,4.861761,0.0,0.274576,3.485146,9.286545,8.65312575,-23.00156275,-42.871877,-130.18173166666665,-20.6049018,-2.1772202000000003,-0.012171162162162161,-0.007985486486486486,-0.007215891891891889
2024-06-06 12:07:49.220,72.881,0.0,6.434,52.334672,4.861761,0.0,0.3942175,3.4725835,9.1519485,8.681251,-23.00625,-42.900002,-130.13441033333334,-20.618102,-2.4269110000000005,-0.012052405405405406,-0.008512716216216215,-0.007719729729729726
2024-06-06 12:07:49.230,72.881,0.0,6.434,52.334672,4.861761,0.0,0.513859,3.460021,9.017352,8.690625749999999,-22.97812525,-42.928126750000004,-130.087089,-20.6313022,-2.6766018000000003,-0.011933648648648649,-0.009039945945945944,-0.008223567567567563
2024-06-06 12:07:49.250,72.881,0.0,6.434,52.334672,4.861761,0.0,0.621536,3.428915,9.073584,8.7000005,-22.9500005,-42.9562515,-130.03976766666665,-20.6445024,-2.9262926,-0.011814891891891891,-0.009567175675675676,-0.008727405405405404
2024-06-06 12:07:49.270,72.881,0.0,6.434,52.334672,4.861761,0.0,0.66341,3.419343,9.334999,8.70937525,-22.92187575,-42.98437625,-129.99244633333333,-20.6577026,-3.1759834000000002,-0.011696135135135136,-0.010094405405405404,-0.009231243243243242
2024-06-06 12:07:49.280,72.881,0.0,6.434,52.334672,4.861761,0.0,0.845863,3.4337,9.357133000000001,8.71875,-22.893751,-43.012501,-129.945125,-20.6709028,-3.4256742000000004,-0.011577378378378378,-0.010621635135135133,-0.009735081081081079
2024-06-06 12:07:49.290,72.881,0.0,6.434,52.334672,4.861761,0.0,1.028316,3.448057,9.379267,8.68125,-22.8703135,-43.02656375,-129.89780366666665,-20.684103,-3.675365,-0.011458621621621621,-0.011148864864864865,-0.010238918918918916
2024-06-06 12:07:49.310,72.881,0.0,6.434,52.334672,4.861761,0.0,1.150349,3.444468,9.315857,8.64375,-22.846876,-43.0406265,-129.85048233333333,-20.6973032,-3.9250558,-0.011339864864864865,-0.011676094594594594,-0.010742756756756754
2024-06-06 12:07:49.330,72.881,0.0,6.434,52.334672,4.861761,0.0,1.016351,3.620341,8.933603,8.60625,-22.8234385,-43.05468925,-129.803161,-20.7105034,-4.174746600000001,-0.011221108108108108,-0.012203324324324322,-0.011246594594594591
2024-06-06 12:07:49.340,72.881,0.0,6.434,52.334672,4.861761,0.0,1.0169495,3.6687955,8.779864,8.56875,-22.800001,-43.068752,-129.75583966666665,-20.7237036,-4.4244374,-0.01110235135135135,-0.012730554054054051,-0.011750432432432428
2024-06-06 12:07:49.350,72.881,0.0,6.434,52.334672,4.861761,0.0,1.017548,3.71725,8.626125,8.48625,-22.781251,-43.1212522,-129.70851833333333,-20.7369038,-4.6741282,-0.010983594594594595,-0.01325778378378378,-0.012254270270270269
2024-06-06 12:07:49.358,72.881,0.0,6.434,52.334672,4.861761,0.0,0.8847464999999999,3.649653,8.776873,8.40375,-22.762501,-43.1737524,-129.661197,-20.750104,-4.923819,-0.010864837837837838,-0.013785013513513512,-0.012758108108108106
2024-06-06 12:07:49.369,72.881,0.0,6.434,52.334672,4.861761,0.0,0.751945,3.582056,8.927621,8.32125,-22.743751000000003,-43.2262526,-129.74629473333331,-20.786488000000002,-4.7698854,-0.01074608108108108,-0.014312243243243244,-0.013261945945945944
2024-06-06 12:07:49.390,72.881,0.0,6.434,52.334672,4.861761,0.0,0.784248,3.498307,9.141779,8.23875,-22.725001000000002,-43.2787528,-129.83139246666664,-20.822872,-4.6159518,-0.010627324324324325,-0.014839472972972969,-0.013765783783783778
2024-06-06 12:07:49.400,72.881,0.0,6.434,52.334672,4.861761,0.0,0.718445,3.507878,9.269496,8.15625,-22.706251,-43.331253,-129.9164902,-20.859256000000002,-4.4620182,-0.010508567567567568,-0.015366702702702701,-0.014269621621621618
2024-06-06 12:07:49.410,72.881,0.0,6.434,52.334672,4.861761,0.0,0.652642,3.517449,9.397213,8.12812525,-22.69218875,-43.3546905,-130.00158793333333,-20.89564,-4.3080846,-0.01038981081081081,-0.015893932432432433,-0.01477345945945946
2024-06-06 12:07:49.430,72.881,0.0,6.434,52.334672,4.861761,0.0,0.604786,3.564109,9.595817,8.1000005,-22.6781265,-43.378128,-130.08668566666665,-20.932024000000002,-4.154151,-0.010271054054054055,-0.01642116216216216,-0.015277297297297293
2024-06-06 12:07:49.450,72.881,0.0,6.434,52.334672,4.861761,0.0,0.601197,3.469593,9.473783,8.07187575,-22.664064250000003,-43.4015655,-130.17178339999998,-20.968408,-4.0002174,-0.010152297297297297,-0.01694839189189189,-0.015781135135135134
2024-06-06 12:07:49.460,72.881,0.0,6.434,52.334672,4.861761,0.0,0.5647065,3.470191,9.329915,8.043751,-22.650002,-43.425003,-130.2568811333333,-21.004792000000002,-3.8462838,-0.01003354054054054,-0.017475621621621622,-0.016284972972972968
2024-06-06 12:07:49.470,72.881,0.0,6.434,52.334672,4.861761,0.0,0.528216,3.470789,9.186047,8.043751,-22.67812675,-43.420314749999996,-130.34197886666666,-21.041176,-3.6923502,-0.009914783783783784,-0.018002851351351348,-0.01678881081081081
2024-06-06 12:07:49.490,72.881,0.0,6.434,52.334672,4.861761,0.0,0.409771,3.570091,9.072387,8.043751,-22.7062515,-43.4156265,-130.4270766,-21.077560000000002,-3.5384166,-0.009796027027027027,-0.01853008108108108,-0.017292648648648642
2024-06-06 12:07:49.510,72.881,0.0,6.434,52.334672,4.861761,0.0,0.403789,3.534199,9.096315,8.043751,-22.73437625,-43.41093825,-130.51217433333332,-21.113944,-3.3844830000000004,-0.00967727027027027,-0.019057310810810812,-0.017796486486486483
2024-06-06 12:07:49.520,72.881,0.0,6.434,52.334672,4.861761,0.0,0.3125625,3.5330025000000003,9.1680995,8.043751,-22.762501,-43.40625,-130.59727206666665,-21.150328000000002,-3.2305494,-0.009558513513513514,-0.019584540540540537,-0.018300324324324317
2024-06-06 12:07:49.530,72.881,0.0,6.434,52.334672,4.861761,0.0,0.221336,3.531806,9.239884,8.031250833333333,-22.771875833333333,-43.421875,-130.68236979999998,-21.186712,-3.0766158000000003,-0.009439756756756757,-0.02011177027027027,-0.018804162162162158
2024-06-06 12:07:49.545,72.881,0.0,6.434,52.334672,4.861761,0.0,0.1621135,3.586243,9.291629,8.018750666666667,-22.78125066666667,-43.4375,-130.76746753333333,-21.223096,-2.9226822,-0.009321,-0.020639,-0.019308
2024-06-06 12:07:49.550,72.881,0.0,6.434,52.334672,4.861761,0.0,0.102891,3.64068,9.343374,8.0062505,-22.7906255,-43.453125,-130.85256526666666,-21.25948,-2.7687486000000003,-0.008648197368421052,-0.02098417105263158,-0.018973355263157892
2024-06-06 12:07:49.557,72.881,0.0,6.434,52.334672,4.861761,0.0,0.114257,3.675974,9.2778705,7.993750333333334,-22.800000333333333,-43.46875,-130.937663,-21.295864,-2.614815,-0.007975394736842105,-0.02132934210526316,-0.01863871052631579
2024-06-06 12:07:49.570,72.881,0.0,6.434,52.334672,4.861761,0.0,0.125623,3.711268,9.212367,7.981250166666666,-22.80937516666667,-43.484375,-130.9798492142857,-21.391332714285717,-2.417092142857143,-0.007302592105263158,-0.02167451315789474,-0.018304065789473682
2024-06-06 12:07:49.580,72.881,0.0,6.434,52.334672,4.861761,0.0,0.1411765,3.696313,9.178269499999999,7.96875,-22.81875,-43.5,-131.02203542857143,-21.48680142857143,-2.219369285714286,-0.00662978947368421,-0.022019684210526316,-0.01796942105263158
2024-06-06 12:07:49.590,72.881,0.0,6.434,52.334672,4.861761,0.0,0.15673,3.681358,9.144172,7.959375,-22.846875500000003,-43.4906255,-131.06422164285712,-21.582270142857144,-2.0216464285714286,-0.005956986842105263,-0.022364855263157894,-0.017634776315789472
2024-06-06 12:07:49.610,72.881,0.0,6.434,52.334672,4.861761,0.0,0.178265,3.644269,9.321838,7.95,-22.875001,-43.481251,-131.10640785714284,-21.67773885714286,-1.8239235714285715,-0.005284184210526315,-0.022710026315789476,-0.017300131578947366
2024-06-06 12:07:49.630,72.881,0.0,6.434,52.334672,4.861761,0.0,0.045464,3.7005,9.401999,7.940625000000001,-22.9031265,-43.4718765,-131.14859407142856,-21.77320757142857,-1.6262007142857144,-0.004611381578947368,-0.023055197368421054,-0.016965486842105262
2024-06-06 12:07:49.640,72.881,0.0,6.434,52.334672,4.861761,0.0,0.013160499999999999,3.7453655,9.315558,7.93125,-22.931252,-43.462502,-131.19078028571428,-21.868676285714287,-1.4284778571428571,-0.0039385789473684206,-0.02340036842105263,-0.016630842105263156
2024-06-06 12:07:49.650,72.881,0.0,6.434,52.334672,4.861761,0.0,-0.019143,3.790231,9.229117,7.987500000000001,-22.945314250000003,-43.3640645,-131.23296649999997,-21.964145000000002,-1.230755,-0.0032657763157894733,-0.023745539473684213,-0.016296197368421052
2024-06-06 12:07:49.670,72.881,0.0,6.434,52.334672,4.861761,0.0,0.070588,3.778267,8.968299,8.04375,-22.9593765,-43.265627,-131.2751527142857,-22.059613714285714,-1.033032142857143,-0.002592973684210526,-0.02409071052631579,-0.015961552631578946
2024-06-06 12:07:49.690,72.881,0.0,6.434,52.334672,4.861761,0.0,0.088534,3.814159,8.931211,8.1,-22.97343875,-43.167189500000006,-131.31733892857142,-22.15508242857143,-0.8353092857142859,-0.0019201710526315788,-0.02443588157894737,-0.015626907894736843
2024-06-06 12:07:49.700,72.881,0.0,6.434,52.334672,4.861761,0.0,0.0430705,3.827918,9.047262499999999,8.15625,-22.987501,-43.068752,-131.35952514285714,-22.25055114285714,-0.6375864285714288,-0.0012473684210526307,-0.024781052631578947,-0.015292263157894736
2024-06-06 12:07:49.710,72.881,0.0,6.434,52.334672,4.861761,0.0,-0.002393,3.841677,9.163314,8.16,-23.032501200000002,-43.046252200000005,-131.40171135714286,-22.346019857142856,-0.43986357142857146,-0.0005745657894736834,-0.025126223684210528,-0.014957618421052631
2024-06-06 12:07:49.730,72.881,0.0,6.434,52.334672,4.861761,0.0,-0.138784,3.651447,9.33141,8.16375,-23.077501400000003,-43.0237524,-131.44389757142855,-22.44148857142857,-0.24214071428571415,9.82368421052638e-05,-0.025471394736842106,-0.014622973684210526
2024-06-06 12:07:49.750,72.881,0.0,6.434,52.334672,4.861761,0.0,-0.071785,3.760321,9.27817,8.1675,-23.1225016,-43.0012526,-131.48608378571427,-22.536957285714283,-0.04441785714285729,0.000771039473684211,-0.025816565789473684,-0.01428832894736842
2024-06-06 12:07:49.757,72.881,0.0,6.434,52.334672,4.861761,0.0,-0.08534433333333333,3.7671006666666664,9.245866666666666,8.17125,-23.1675018,-42.978752799999995,-131.52827,-22.632426,0.153305,0.0014438421052631583,-0.026161736842105265,-0.013953684210526316
2024-06-06 12:07:49.760,72.881,0.0,6.434,52.334672,4.861761,0.0,-0.09890366666666667,3.7738803333333335,9.213563333333333,8.175,-23.212502,-42.956253,-131.514534,-22.631667066666665,0.1301192,0.0021166447368421056,-0.026506907894736843,-0.01361903947368421
2024-06-06 12:07:49.770,72.881,0.0,6.434,52.334672,4.861761,0.0,-0.112463,3.78066,9.18126,8.25468775,-23.250001750000003,-42.909378,-131.500798,-22.63090813333333,0.10693340000000001,0.002789447368421053,-0.02685207894736842,-0.013284394736842104
2024-06-06 12:07:49.790,72.881,0.0,6.434,52.334672,4.861761,0.0,-0.211765,3.88714,9.194421,8.3343755,-23.2875015,-42.862503,-131.48706199999998,-22.630149199999998,0.0837476,0.00346225,-0.02719725,-0.01294975
2024-06-06 12:07:49.810,72.881,0.0,6.434,52.334672,4.861761,0.0,-0.215354,3.914658,9.073584,8.41406325,-23.32500125,-42.815628,-131.473326,-22.629390266666665,0.06056180000000001,0.004135052631578947,-0.027542421052631577,-0.012615105263157895
2024-06-06 12:07:49.820,72.881,0.0,6.434,52.334672,4.861761,0.0,-0.200399,3.947559,9.0484595,8.493751,-23.362501,-42.768753,-131.45959,-22.62863133333333,0.03737600000000002,0.0048078552631578945,-0.02788759210526316,-0.01228046052631579
2024-06-06 12:07:49.830,72.881,0.0,6.434,52.334672,4.861761,0.0,-0.185444,3.98046,9.023335,8.592188499999999,-23.41875125,-42.740627249999996,-131.445854,-22.627872399999998,0.014190200000000014,0.005480657894736842,-0.028232763157894736,-0.011945815789473683
2024-06-06 12:07:49.850,72.881,0.0,6.434,52.334672,4.861761,0.0,-0.082552,3.936193,9.007781,8.690626,-23.4750015,-42.7125015,-131.432118,-22.627113466666664,-0.008995599999999965,0.006153460526315789,-0.028577934210526318,-0.01161117105263158
2024-06-06 12:07:49.870,72.881,0.0,6.434,52.334672,4.861761,0.0,-0.06341,3.881158,9.042477,8.789063500000001,-23.531251750000003,-42.68437575,-131.41838199999998,-22.626354533333334,-0.03218139999999997,0.006826263157894738,-0.028923105263157896,-0.011276526315789473
2024-06-06 12:07:49.880,72.881,0.0,6.434,52.334672,4.861761,0.0,0.0,3.8506495000000003,9.082557,8.887501,-23.587502,-42.65625,-131.40464599999999,-22.6255956,-0.05536719999999998,0.0074990657894736835,-0.029268276315789474,-0.010941881578947368
2024-06-06 12:07:49.890,72.881,0.0,6.434,52.334672,4.861761,0.0,0.06341,3.820141,9.122637,8.92031325,-23.620314,-42.595313000000004,-131.39091,-22.624836666666667,-0.07855299999999996,0.008171868421052633,-0.02961344736842105,-0.010607236842105263
2024-06-06 12:07:49.910,72.881,0.0,6.434,52.334672,4.861761,0.0,0.035892,3.768696,9.325428,8.9531255,-23.653126,-42.534376,-131.377174,-22.624077733333333,-0.10173879999999993,0.008844671052631578,-0.02995861842105263,-0.010272592105263158
2024-06-06 12:07:49.930,72.881,0.0,6.434,52.334672,4.861761,0.0,-0.008375,3.822534,9.272188,8.985937750000002,-23.685938,-42.473439,-131.363438,-22.6233188,-0.12492459999999997,0.009517473684210527,-0.03030378947368421,-0.009937947368421053
2024-06-06 12:07:49.940,72.881,0.0,6.434,52.334672,4.861761,0.0,0.07118649999999999,3.8117665,9.2940225,9.01875,-23.71875,-42.412502,-131.34970199999998,-22.622559866666666,-0.14811039999999995,0.010190276315789473,-0.03064896052631579,-0.009603302631578946
2024-06-06 12:07:49.950,72.881,0.0,6.434,52.334672,4.861761,0.0,0.150748,3.800999,9.315857,9.01875,-23.7375,-42.401251800000004,-131.33596599999998,-22.621800933333333,-0.17129619999999993,0.010863078947368422,-0.03099413157894737,-0.009268657894736841
2024-06-06 12:07:49.956,72.881,0.0,6.434,52.334672,4.861761,0.0,0.13998,3.783651,9.370891499999999,9.01875,-23.75625,-42.390001600000005,-131.32223,-22.621042,-0.194482,0.011535881578947367,-0.03133930263157895,-0.008934013157894737
2024-06-06 12:07:49.970,72.881,0.0,6.434,52.334672,4.861761,0.0,0.129212,3.766303,9.425926,9.01875,-23.775,-42.3787514,-131.3067082,-22.645747666666665,-0.2812426,0.012208684210526316,-0.031684473684210526,-0.008599368421052632
2024-06-06 12:07:49.990,72.881,0.0,6.434,52.334672,4.861761,0.0,0.15673,3.789035,9.388838,9.01875,-23.79375,-42.3675012,-131.2911864,-22.670453333333334,-0.3680032,0.012881486842105265,-0.032029644736842104,-0.008264723684210527
2024-06-06 12:07:50.000,72.881,0.0,6.434,52.334672,4.861761,0.0,0.14396833333333334,3.806981,9.316455,9.01875,-23.8125,-42.356251,-131.2756646,-22.695159,-0.4547638,0.01355428947368421,-0.03237481578947368,-0.007930078947368422
2024-06-06 12:07:50.000,69.282,0.0,6.172,52.334658,4.861778,0.0,0.13120666666666667,3.824927,9.244072000000001,9.0225,-23.8350002,-42.3112512,-131.26014279999998,-22.719864666666666,-0.5415244,0.01422709210526316,-0.03271998684210527,-0.007595434210526317
2024-06-06 12:07:50.010,69.282,0.0,6.172,52.334658,4.861778,0.0,0.118445,3.842873,9.171689,9.026250000000001,-23.8575004,-42.2662514,-131.244621,-22.744570333333332,-0.628285,0.014899894736842105,-0.03306515789473684,-0.00726078947368421
2024-06-06 12:07:50.030,69.282,0.0,6.172,52.334658,4.861778,0.0,0.204586,3.877569,9.02812,9.03,-23.880000600000002,-42.2212516,-131.2290992,-22.769276,-0.7150456000000001,0.015572697368421054,-0.03341032894736842,-0.006926144736842105
2024-06-06 12:07:50.050,69.282,0.0,6.172,52.334658,4.861778,0.0,0.247059,3.787838,8.997013,9.03375,-23.902500800000002,-42.1762518,-131.2135774,-22.793981666666667,-0.8018062000000001,0.0162455,-0.0337555,-0.0065915
2024-06-06 12:07:50.060,69.282,0.0,6.172,52.334658,4.861778,0.0,0.238385,3.7896324999999997,9.0161555,9.0375,-23.925001,-42.131252,-131.1980556,-22.818687333333333,-0.8885668,0.01691830263157895,-0.03410067105263158,-0.006256855263157895
2024-06-06 12:07:50.070,69.282,0.0,6.172,52.334658,4.861778,0.0,0.229711,3.791427,9.035298,9.0609375,-23.95312575,-42.10312725,-131.1825338,-22.843393,-0.9753274000000001,0.017591105263157894,-0.03444584210526316,-0.00592221052631579
2024-06-06 12:07:50.090,69.282,0.0,6.172,52.334658,4.861778,0.0,0.20339,3.865605,9.092726,9.084375,-23.9812505,-42.0750025,-131.167012,-22.86809866666667,-1.0620880000000001,0.018263907894736843,-0.034791013157894735,-0.005587565789473685
2024-06-06 12:07:50.110,69.282,0.0,6.172,52.334658,4.861778,0.0,0.24347,3.931408,9.035298,9.1078125,-24.00937525,-42.04687775,-131.1514902,-22.892804333333334,-1.1488486,0.01893671052631579,-0.03513618421052632,-0.005252921052631579
2024-06-06 12:07:50.120,69.282,0.0,6.172,52.334658,4.861778,0.0,0.293121,3.9421755,9.046664,9.13125,-24.0375,-42.018753,-131.1359684,-22.91751,-1.2356092,0.019609513157894738,-0.03548135526315789,-0.004918276315789474
2024-06-06 12:07:50.130,69.282,0.0,6.172,52.334658,4.861778,0.0,0.342772,3.952943,9.05803,9.09375,-24.022500400000002,-42.030002599999996,-131.1204466,-22.942215666666666,-1.3223698000000002,0.020282315789473683,-0.035826526315789475,-0.004583631578947369
2024-06-06 12:07:50.150,69.282,0.0,6.172,52.334658,4.861778,0.0,0.250648,3.973282,9.098708,9.05625,-24.007500800000003,-42.041252199999995,-131.1049248,-22.966921333333335,-1.4091304000000002,0.020955118421052632,-0.03617169736842105,-0.004248986842105264
2024-06-06 12:07:50.155,69.282,0.0,6.172,52.334658,4.861778,0.0,0.2608175,3.955934,9.078967500000001,9.018749999999999,-23.9925012,-42.0525018,-131.089403,-22.991627,-1.495891,0.021627921052631578,-0.03651686842105263,-0.003914342105263159
2024-06-06 12:07:50.170,69.282,0.0,6.172,52.334658,4.861778,0.0,0.270987,3.938586,9.059227,8.98125,-23.9775016,-42.0637514,-131.0843535,-22.976796214285717,-1.5278494285714286,0.022300723684210527,-0.03686203947368421,-0.003579697368421054
2024-06-06 12:07:50.180,69.282,0.0,6.172,52.334658,4.861778,0.0,0.31824549999999996,3.8919259999999998,9.0460665,8.94375,-23.962502,-42.075001,-131.079304,-22.96196542857143,-1.5598078571428573,0.022973526315789475,-0.03720721052631579,-0.003245052631578947
2024-06-06 12:07:50.190,69.282,0.0,6.172,52.334658,4.861778,0.0,0.365504,3.845266,9.032906,8.915625,-23.962502,-42.04687625,-131.0742545,-22.947134642857144,-1.5917662857142858,0.023646328947368424,-0.03755238157894737,-0.002910407894736844
2024-06-06 12:07:50.210,69.282,0.0,6.172,52.334658,4.861778,0.0,0.38345,3.84048,9.134601,8.8875,-23.962502,-42.0187515,-131.069205,-22.93230385714286,-1.6237247142857143,0.024319131578947367,-0.03789755263157894,-0.0025757631578947372
2024-06-06 12:07:50.230,69.282,0.0,6.172,52.334658,4.861778,0.0,0.300897,3.862016,9.067601,8.859375,-23.962502,-41.990626750000004,-131.0641555,-22.91747307142857,-1.6556831428571428,0.024991934210526316,-0.03824272368421053,-0.002241118421052634
2024-06-06 12:07:50.240,69.282,0.0,6.172,52.334658,4.861778,0.0,0.262911,3.8877385,8.977272,8.83125,-23.962502,-41.962502,-131.059106,-22.902642285714286,-1.6876415714285715,0.025664736842105264,-0.038587894736842106,-0.0019064736842105273
2024-06-06 12:07:50.250,69.282,0.0,6.172,52.334658,4.861778,0.0,0.224925,3.913461,8.886943,8.784375,-23.9859395,-41.9718765,-131.0540565,-22.887811499999998,-1.7196,0.026337539473684213,-0.038933065789473684,-0.0015718289473684206
2024-06-06 12:07:50.270,69.282,0.0,6.172,52.334658,4.861778,0.0,0.192622,3.913461,9.032906,8.7375,-24.009377,-41.981251,-131.049007,-22.872980714285713,-1.7515584285714285,0.027010342105263156,-0.03927823684210526,-0.0012371842105263174
2024-06-06 12:07:50.290,69.282,0.0,6.172,52.334658,4.861778,0.0,0.270987,3.790231,9.238688,8.690625,-24.0328145,-41.9906255,-131.0439575,-22.85814992857143,-1.7835168571428572,0.027683144736842104,-0.03962340789473684,-0.0009025394736842107
2024-06-06 12:07:50.300,69.282,0.0,6.172,52.334658,4.861778,0.0,0.3337985,3.7968115,9.170493,8.64375,-24.056252,-42.0,-131.038908,-22.84331914285714,-1.8154752857142857,0.028355947368421053,-0.039968578947368424,-0.0005678947368421075
2024-06-06 12:07:50.310,69.282,0.0,6.172,52.334658,4.861778,0.0,0.39661,3.803392,9.102298,8.598750200000001,-24.0712516,-42.0300004,-131.0338585,-22.828488357142856,-1.8474337142857142,0.029028750000000002,-0.040313749999999995,-0.00023325000000000082
2024-06-06 12:07:50.330,69.282,0.0,6.172,52.334658,4.861778,0.0,0.292523,3.787838,9.182457,8.5537504,-24.0862512,-42.0600008,-131.028809,-22.81365757142857,-1.8793921428571427,0.029701552631578945,-0.04065892105263158,0.00010139473684210587
2024-06-06 12:07:50.350,69.282,0.0,6.172,52.334658,4.861778,0.0,0.214158,3.745964,9.515657,8.5087506,-24.101250800000003,-42.0900012,-131.0237595,-22.798826785714283,-1.9113505714285715,0.030374355263157893,-0.04100409210526316,0.0004360394736842091
2024-06-06 12:07:50.355,69.282,0.0,6.172,52.334658,4.861778,0.0,0.219741,3.7304106666666668,9.530014,8.4637508,-24.116250400000002,-42.1200016,-131.01871,-22.783996,-1.943309,0.031047157894736842,-0.041349263157894736,0.0007706842105263158
2024-06-06 12:07:50.360,69.282,0.0,6.172,52.334658,4.861778,0.0,0.225324,3.7148573333333332,9.544371,8.418751,-24.13125,-42.150002,-131.03217826666668,-22.854476266666666,-2.195651933333333,0.03171996052631579,-0.041694434210526314,0.001105328947368419
2024-06-06 12:07:50.370,69.282,0.0,6.172,52.334658,4.861778,0.0,0.230907,3.699304,9.558728,8.38125075,-24.1546875,-42.16406475,-131.04564653333333,-22.924956533333333,-2.4479948666666664,0.03239276315789473,-0.04203960526315789,0.0014399736842105257
2024-06-06 12:07:50.390,69.282,0.0,6.172,52.334658,4.861778,0.0,0.183051,3.726821,9.558728,8.3437505,-24.178125,-42.1781275,-131.0591148,-22.9954368,-2.7003378,0.033065565789473686,-0.04238477631578948,0.001774618421052629
2024-06-06 12:07:50.410,69.282,0.0,6.172,52.334658,4.861778,0.0,0.46002,3.775874,9.29133,8.306250250000002,-24.2015625,-42.192190249999996,-131.07258306666665,-23.065917066666664,-2.952680733333333,0.03373836842105263,-0.04272994736842105,0.0021092631578947356
2024-06-06 12:07:50.420,69.282,0.0,6.172,52.334658,4.861778,0.0,0.6496515,3.908676,8.948558,8.26875,-24.225,-42.206253,-131.08605133333333,-23.13639733333333,-3.2050236666666665,0.034411171052631584,-0.04307511842105263,0.0024439078947368423
2024-06-06 12:07:50.430,69.282,0.0,6.172,52.334658,4.861778,0.0,0.839283,4.041478,8.605786,8.1796875,-24.24375025,-42.1968775,-131.0995196,-23.2068776,-3.4573665999999994,0.035083973684210526,-0.04342028947368421,0.0027785526315789455
2024-06-06 12:07:50.450,69.282,0.0,6.172,52.334658,4.861778,0.0,1.016351,4.286742,8.438289,8.090625,-24.2625005,-42.187501999999995,-131.11298786666666,-23.277357866666666,-3.709709533333333,0.03575677631578947,-0.04376546052631579,0.003113197368421052
2024-06-06 12:07:50.470,69.282,0.0,6.172,52.334658,4.861778,0.0,1.043869,4.206582,8.784052,8.0015625,-24.28125075,-42.1781265,-131.12645613333333,-23.347838133333333,-3.962052466666666,0.036429578947368424,-0.04411063157894737,0.0034478421052631554
2024-06-06 12:07:50.480,69.282,0.0,6.172,52.334658,4.861778,0.0,1.096511,4.0851465000000005,8.9665045,7.9125,-24.300001,-42.168751,-131.13992439999998,-23.4183184,-4.2143954,0.037102381578947366,-0.044455802631578945,0.003782486842105262
2024-06-06 12:07:50.490,69.282,0.0,6.172,52.334658,4.861778,0.0,1.149153,3.963711,9.148957,7.828125,-24.3234385,-42.168751,-131.15339266666666,-23.488798666666668,-4.466738333333333,0.03777518421052632,-0.04480097368421053,0.004117131578947365
2024-06-06 12:07:50.510,69.282,0.0,6.172,52.334658,4.861778,0.0,1.112064,3.879962,9.07478,7.74375,-24.346876,-42.168751,-131.16686093333334,-23.559278933333335,-4.719081266666667,0.038447986842105264,-0.0451461447368421,0.004451776315789472
2024-06-06 12:07:50.530,69.282,0.0,6.172,52.334658,4.861778,0.0,0.997209,3.943372,8.986245,7.659375,-24.3703135,-42.168751,-131.1803292,-23.6297592,-4.9714241999999995,0.039120789473684206,-0.045491315789473685,0.004786421052631579
2024-06-06 12:07:50.540,69.282,0.0,6.172,52.334658,4.861778,0.0,0.9421740000000001,3.9774695,8.9443705,7.575,-24.393751,-42.168751,-131.19379746666667,-23.700239466666666,-5.223767133333332,0.03979359210526316,-0.04583648684210526,0.005121065789473682
2024-06-06 12:07:50.550,69.282,0.0,6.172,52.334658,4.861778,0.0,0.887139,4.011567,8.902496,7.509375,-24.40000116666667,-42.168751,-131.20726573333332,-23.770719733333333,-5.476110066666666,0.040466394736842104,-0.04618165789473684,0.005455710526315789
2024-06-06 12:07:50.555,69.282,0.0,6.172,52.334658,4.861778,0.0,0.883151,4.008775333333333,8.942775666666666,7.4437500000000005,-24.406251333333334,-42.168751,-131.220734,-23.8412,-5.728453,0.041139197368421046,-0.04652682894736842,0.005790355263157892
2024-06-06 12:07:50.559,69.282,0.0,6.172,52.334658,4.861778,0.0,0.879163,4.005983666666667,8.983055333333333,7.378125000000001,-24.4125015,-42.168751,-131.2050136,-23.780066733333335,-5.6628544,0.041812,-0.046872,0.006125
2024-06-06 12:07:50.570,69.282,0.0,6.172,52.334658,4.861778,0.0,0.875175,4.003192,9.023335,7.3125,-24.41875166666667,-42.168751,-131.18929319999998,-23.718933466666666,-5.5972558,0.041103600000000004,-0.04587242666666666,0.005935026666666667
2024-06-06 12:07:50.590,69.282,0.0,6.172,52.334658,4.861778,0.0,0.867996,3.938586,9.156136,7.246875,-24.425001833333333,-42.168751,-131.1735728,-23.6578002,-5.5316572,0.0403952,-0.04487285333333333,0.005745053333333333
2024-06-06 12:07:50.600,69.282,0.0,6.172,52.334658,4.861778,0.0,0.827318,3.985246,9.068200000000001,7.18125,-24.431252,-42.168751,-131.1578524,-23.596666933333335,-5.4660586,0.0396868,-0.04387328,0.0055550800000000004
2024-06-06 12:07:50.610,69.282,0.0,6.172,52.334658,4.861778,0.0,0.78664,4.031906,8.980264,7.125,-24.5015645,-42.201564,-131.142132,-23.535533666666666,-5.40046,0.0389784,-0.042873706666666664,0.005365106666666667
2024-06-06 12:07:50.630,69.282,0.0,6.172,52.334658,4.861778,0.0,0.745962,4.015156,8.913264,7.06875,-24.571877,-42.234376999999995,-131.12641159999998,-23.4744004,-5.3348614,0.03827,-0.04187413333333333,0.005175133333333333
2024-06-06 12:07:50.650,69.282,0.0,6.172,52.334658,4.861778,0.0,0.729213,3.881158,8.950353,7.0125,-24.6421895,-42.26719,-131.1106912,-23.413267133333335,-5.2692628,0.0375616,-0.04087456,0.004985160000000001
2024-06-06 12:07:50.660,69.282,0.0,6.172,52.334658,4.861778,0.0,0.7657035,3.839284,9.08136,6.95625,-24.712502,-42.300003,-131.0949708,-23.352133866666666,-5.2036642,0.0368532,-0.03987498666666667,0.004795186666666667
2024-06-06 12:07:50.670,69.282,0.0,6.172,52.334658,4.861778,0.0,0.802194,3.79741,9.212367,6.8671875,-24.726564250000003,-42.342189749999996,-131.0792504,-23.2910006,-5.1380656,0.036144800000000005,-0.03887541333333333,0.0046052133333333335
2024-06-06 12:07:50.690,69.282,0.0,6.172,52.334658,4.861778,0.0,0.785444,3.900301,9.266206,6.778124999999999,-24.7406265,-42.3843765,-131.06353,-23.229867333333335,-5.0724670000000005,0.0354364,-0.037875839999999994,0.00441524
2024-06-06 12:07:50.710,69.282,0.0,6.172,52.334658,4.861778,0.0,0.784248,3.912265,9.306286,6.6890624999999995,-24.75468875,-42.42656325,-131.0478096,-23.168734066666666,-5.0068684,0.034728,-0.036876266666666664,0.004225266666666666
2024-06-06 12:07:50.720,69.282,0.0,6.172,52.334658,4.861778,0.0,0.756132,3.8751765000000002,9.264112,6.6,-24.768751,-42.46875,-131.0320892,-23.1076008,-4.941269800000001,0.0340196,-0.035876693333333334,0.004035293333333334
2024-06-06 12:07:50.730,69.282,0.0,6.172,52.334658,4.861778,0.0,0.728016,3.838088,9.221938,6.5625,-24.761251,-42.5100006,-131.0163688,-23.046467533333335,-4.8756712,0.0333112,-0.03487712,0.00384532
2024-06-06 12:07:50.750,69.282,0.0,6.172,52.334658,4.861778,0.0,0.707677,3.779463,9.006584,6.5249999999999995,-24.753751,-42.551251199999996,-131.0006484,-22.985334266666666,-4.8100726,0.0326028,-0.03387754666666666,0.0036553466666666666
2024-06-06 12:07:50.754,69.282,0.0,6.172,52.334658,4.861778,0.0,0.680758,3.8099714999999996,9.0017985,6.4875,-24.746251,-42.5925018,-130.984928,-22.924201,-4.744474,0.0318944,-0.03287797333333333,0.0034653733333333335
2024-06-06 12:07:50.770,69.282,0.0,6.172,52.334658,4.861778,0.0,0.653839,3.84048,8.997013,6.449999999999999,-24.738751,-42.6337524,-130.97224828571427,-22.899632357142856,-4.672469714285715,0.031186,-0.0318784,0.0032754000000000004
2024-06-06 12:07:50.780,69.282,0.0,6.172,52.334658,4.861778,0.0,0.65683,3.8500515,9.099306,6.4125,-24.731251,-42.675003,-130.95956857142858,-22.875063714285716,-4.600465428571429,0.0304776,-0.030878826666666664,0.003085426666666667
2024-06-06 12:07:50.790,69.282,0.0,6.172,52.334658,4.861778,0.0,0.659821,3.859623,9.201599,6.3515625,-24.70312625,-42.675003,-130.94688885714285,-22.850495071428572,-4.528461142857143,0.029769200000000003,-0.02987925333333333,0.0028954533333333332
2024-06-06 12:07:50.810,69.282,0.0,6.172,52.334658,4.861778,0.0,0.700499,3.785445,9.354142,6.290625,-24.6750015,-42.675003,-130.93420914285713,-22.825926428571428,-4.456456857142857,0.0290608,-0.028879679999999998,0.00270548
2024-06-06 12:07:50.830,69.282,0.0,6.172,52.334658,4.861778,0.0,0.844068,3.676572,9.034101,6.2296875,-24.64687675,-42.675003,-130.92152942857143,-22.801357785714284,-4.384452571428572,0.0283524,-0.027880106666666665,0.002515506666666667
2024-06-06 12:07:50.840,69.282,0.0,6.172,52.334658,4.861778,0.0,0.756132,3.7040895000000003,9.134599999999999,6.16875,-24.618752,-42.675003,-130.9088497142857,-22.776789142857144,-4.312448285714286,0.027644000000000002,-0.02688053333333333,0.0023255333333333334
2024-06-06 12:07:50.850,69.282,0.0,6.172,52.334658,4.861778,0.0,0.668196,3.731607,9.235099,6.1359375,-24.585939250000003,-42.693752249999996,-130.89616999999998,-22.7522205,-4.240444,0.0269356,-0.025880959999999998,0.00213556
2024-06-06 12:07:50.870,69.282,0.0,6.172,52.334658,4.861778,0.0,0.44686,3.765106,9.212367,6.103125,-24.5531265,-42.7125015,-130.8834902857143,-22.727651857142856,-4.168439714285714,0.0262272,-0.024881386666666665,0.0019455866666666672
2024-06-06 12:07:50.890,69.282,0.0,6.172,52.334658,4.861778,0.0,0.576072,3.835695,9.019745,6.0703125,-24.52031375,-42.73125075,-130.87081057142856,-22.703083214285716,-4.096435428571429,0.0255188,-0.02388181333333333,0.0017556133333333336
2024-06-06 12:07:50.900,69.282,0.0,6.172,52.334658,4.861778,0.0,0.6101695,3.8638105,9.024530500000001,6.0375,-24.487501,-42.75,-130.85813085714287,-22.678514571428572,-4.024431142857143,0.0248104,-0.022882239999999998,0.00156564
2024-06-06 12:07:50.910,69.282,0.0,6.172,52.334658,4.861778,0.0,0.644267,3.891926,9.029316,6.1049999999999995,-24.491250800000003,-42.7425004,-130.84545114285714,-22.653945928571428,-3.952426857142857,0.024102,-0.021882666666666665,0.0013756666666666665
2024-06-06 12:07:50.930,69.282,0.0,6.172,52.334658,4.861778,0.0,0.533001,3.952943,9.292527,6.172499999999999,-24.4950006,-42.7350008,-130.83277142857142,-22.629377285714284,-3.8804225714285714,0.0233936,-0.02088309333333333,0.001185693333333333
2024-06-06 12:07:50.950,69.282,0.0,6.172,52.334658,4.861778,0.0,0.571286,3.925426,9.287741,6.24,-24.498750400000002,-42.7275012,-130.82009171428572,-22.604808642857144,-3.8084182857142856,0.0226852,-0.01988352,0.0009957200000000003
2024-06-06 12:07:50.954,69.282,0.0,6.172,52.334658,4.861778,0.0,0.5800596666666666,3.8871406666666664,9.239884666666667,6.3075,-24.5025002,-42.7200016,-130.807412,-22.58024,-3.736414,0.021976799999999998,-0.018883946666666665,0.0008057466666666667
2024-06-06 12:07:50.960,69.282,0.0,6.172,52.334658,4.861778,0.0,0.5888333333333333,3.8488553333333333,9.192028333333333,6.375,-24.50625,-42.712502,-130.8046893125,-22.61062025,-3.712189,0.0212684,-0.01788437333333333,0.0006157733333333332
2024-06-06 12:07:50.970,69.282,0.0,6.172,52.334658,4.861778,0.0,0.597607,3.81057,9.144172,6.4425,-24.457500200000002,-42.6787518,-130.801966625,-22.6410005,-3.687964,0.02056,-0.0168848,0.0004258000000000005
2024-06-06 12:07:50.990,69.282,0.0,6.172,52.334658,4.861778,0.0,0.518644,3.701697,9.199206,6.51,-24.408750400000002,-42.6450016,-130.7992439375,-22.67138075,-3.663739,0.0198516,-0.015885226666666665,0.00023582666666666693
2024-06-06 12:07:51.000,67.409,0.0,6.062,52.334654,4.861785,0.0,0.4881355,3.7154555,9.1393855,6.577500000000001,-24.3600006,-42.6112514,-130.79652125,-22.701761,-3.639514,0.0191432,-0.014885653333333332,4.585333333333337e-05
2024-06-06 12:07:51.010,67.409,0.0,6.062,52.334654,4.861785,0.0,0.457627,3.729214,9.079565,6.6450000000000005,-24.3112508,-42.5775012,-130.7937985625,-22.73214125,-3.6152889999999998,0.018434799999999998,-0.013886079999999995,-0.00014412000000000019
2024-06-06 12:07:51.020,67.409,0.0,6.062,52.334654,4.861785,0.0,0.4671985,3.8075789999999996,8.985048500000001,6.7125,-24.262501,-42.543751,-130.791075875,-22.762521500000002,-3.591064,0.0177264,-0.012886506666666665,-0.00033409333333333374
2024-06-06 12:07:51.030,67.409,0.0,6.062,52.334654,4.861785,0.0,0.47677,3.885944,8.890532,6.7734375,-24.24375125,-42.5062515,-130.7883531875,-22.792901750000002,-3.566839,0.017018,-0.011886933333333335,-0.0005240666666666664
2024-06-06 12:07:51.050,67.409,0.0,6.062,52.334654,4.861785,0.0,0.550947,3.930211,8.873783,6.834375,-24.225001499999998,-42.468751999999995,-130.7856305,-22.823282,-3.542614,0.0163096,-0.010887359999999999,-0.00071404
2024-06-06 12:07:51.070,67.409,0.0,6.062,52.334654,4.861785,0.0,0.662214,3.771089,9.022138,6.8953125,-24.20625175,-42.4312525,-130.78290781249999,-22.85366225,-3.518389,0.015601199999999999,-0.009887786666666662,-0.0009040133333333335
2024-06-06 12:07:51.080,67.409,0.0,6.062,52.334654,4.861785,0.0,0.569492,3.9182475,9.0873425,6.95625,-24.187502,-42.393753,-130.780185125,-22.8840425,-3.494164,0.014892799999999998,-0.008888213333333332,-0.0010939866666666662
2024-06-06 12:07:51.090,67.409,0.0,6.062,52.334654,4.861785,0.0,0.47677,4.065406,9.152547,6.9703125,-24.173439,-42.37500275,-130.7774624375,-22.91442275,-3.469939,0.0141844,-0.007888640000000002,-0.0012839599999999998
2024-06-06 12:07:51.110,67.409,0.0,6.062,52.334654,4.861785,0.0,0.483948,4.006782,9.128618,6.984375,-24.159376,-42.3562525,-130.77473974999998,-22.944803,-3.4457139999999997,0.013475999999999998,-0.0068890666666666656,-0.0014739333333333333
2024-06-06 12:07:51.130,67.409,0.0,6.062,52.334654,4.861785,0.0,0.538983,3.875176,9.162118,6.9984375,-24.145313,-42.33750225,-130.7720170625,-22.97518325,-3.421489,0.012767599999999997,-0.005889493333333329,-0.001663906666666667
2024-06-06 12:07:51.140,67.409,0.0,6.062,52.334654,4.861785,0.0,0.5371885000000001,3.9080775,9.106485,7.0125,-24.13125,-42.318752,-130.769294375,-23.0055635,-3.397264,0.012059199999999999,-0.004889919999999999,-0.0018538800000000005
2024-06-06 12:07:51.150,67.409,0.0,6.062,52.334654,4.861785,0.0,0.535394,3.940979,9.050852,7.0575,-24.135000400000003,-42.303752,-130.7665716875,-23.03594375,-3.373039,0.011350799999999998,-0.003890346666666669,-0.002043853333333333
2024-06-06 12:07:51.153,67.409,0.0,6.062,52.334654,4.861785,0.0,0.5216355,3.9517465,9.120842,7.1025,-24.1387508,-42.288752,-130.763849,-23.066324,-3.348814,0.010642399999999996,-0.0028907733333333324,-0.002233826666666666
2024-06-06 12:07:51.170,67.409,0.0,6.062,52.334654,4.861785,0.0,0.507877,3.962514,9.190832,7.1475,-24.1425012,-42.273752,-130.75121021428572,-23.073427785714287,-3.3215343571428573,0.009933999999999998,-0.0018911999999999957,-0.0024238000000000003
2024-06-06 12:07:51.190,67.409,0.0,6.062,52.334654,4.861785,0.0,0.499502,3.736392,9.437891,7.1925,-24.1462516,-42.258752,-130.73857142857142,-23.080531571428573,-3.294254714285714,0.0092256,-0.0008916266666666658,-0.002613773333333333
2024-06-06 12:07:51.200,67.409,0.0,6.062,52.334654,4.861785,0.0,0.569492,3.6622145,9.3966145,7.2375,-24.150002,-42.243752,-130.72593264285715,-23.087635357142858,-3.2669750714285715,0.008517199999999996,0.00010794666666666397,-0.0028037466666666674
2024-06-06 12:07:51.210,67.409,0.0,6.062,52.334654,4.861785,0.0,0.639482,3.588037,9.355338,7.246875,-24.1687515,-42.1921895,-130.71329385714284,-23.094739142857144,-3.239695428571429,0.007808799999999998,0.0011075200000000007,-0.00299372
2024-06-06 12:07:51.230,67.409,0.0,6.062,52.334654,4.861785,0.0,0.427717,3.795017,9.380463,7.25625,-24.187501,-42.140627,-130.70065507142857,-23.10184292857143,-3.2124157857142857,0.0071004,0.0021070933333333375,-0.0031836933333333328
2024-06-06 12:07:51.250,67.409,0.0,6.062,52.334654,4.861785,0.0,0.391825,3.957729,9.086744,7.265625,-24.206250500000003,-42.089064500000006,-130.68801628571427,-23.108946714285715,-3.185136142857143,0.006391999999999995,0.0031066666666666673,-0.003373666666666667
2024-06-06 12:07:51.260,67.409,0.0,6.062,52.334654,4.861785,0.0,0.42173499999999997,3.972086,9.0179505,7.275,-24.225,-42.037502,-130.6753775,-23.1160505,-3.1578565000000003,0.005683599999999997,0.004106239999999997,-0.00356364
2024-06-06 12:07:51.270,67.409,0.0,6.062,52.334654,4.861785,0.0,0.451645,3.986443,8.949157,7.307812500000001,-24.21093775,-41.96250225,-130.66273871428572,-23.123154285714286,-3.130576857142857,0.004975199999999999,0.005105813333333334,-0.0037536133333333343
2024-06-06 12:07:51.290,67.409,0.0,6.062,52.334654,4.861785,0.0,0.53659,3.9338,8.865408,7.340625,-24.1968755,-41.8875025,-130.65009992857142,-23.13025807142857,-3.1032972142857145,0.004266799999999994,0.006105386666666671,-0.003943586666666667
2024-06-06 12:07:51.310,67.409,0.0,6.062,52.334654,4.861785,0.0,0.528216,3.883551,9.110672,7.3734375,-24.182813250000002,-41.81250275,-130.63746114285715,-23.137361857142857,-3.0760175714285714,0.0035583999999999963,0.0071049600000000004,-0.00413356
2024-06-06 12:07:51.320,67.409,0.0,6.062,52.334654,4.861785,0.0,0.487538,3.926622,9.160323,7.40625,-24.168751,-41.737503,-130.62482235714285,-23.144465642857142,-3.0487379285714287,0.0028499999999999984,0.00810453333333333,-0.004323533333333334
2024-06-06 12:07:51.330,67.409,0.0,6.062,52.334654,4.861785,0.0,0.44686,3.969693,9.209974,7.43625,-24.1987508,-41.7262528,-130.61218357142857,-23.151569428571428,-3.021458285714286,0.0021415999999999935,0.009104106666666667,-0.004513506666666667
2024-06-06 12:07:51.350,67.409,0.0,6.062,52.334654,4.861785,0.0,0.619143,3.969693,9.000603,7.4662500000000005,-24.2287506,-41.7150026,-130.59954478571427,-23.158673214285713,-2.994178642857143,0.0014331999999999956,0.010103680000000004,-0.0047034799999999995
2024-06-06 12:07:51.353,67.409,0.0,6.062,52.334654,4.861785,0.0,0.5970095,3.955336,8.986246,7.49625,-24.2587504,-41.7037524,-130.586906,-23.165777,-2.966899,0.0007247999999999977,0.011103253333333334,-0.004893453333333334
2024-06-06 12:07:51.370,67.409,0.0,6.062,52.334654,4.861785,0.0,0.574876,3.940979,8.971889,7.52625,-24.288750200000003,-41.6925022,-130.58044364285715,-23.148973642857143,-3.004052142857143,1.6399999999999748e-05,0.012102826666666663,-0.005083426666666667
2024-06-06 12:07:51.380,67.409,0.0,6.062,52.334654,4.861785,0.0,0.509073,3.9391845,9.046664499999999,7.55625,-24.31875,-41.681252,-130.5739812857143,-23.132170285714285,-3.0412052857142857,-0.0006920000000000051,0.0131024,-0.005273399999999999
2024-06-06 12:07:51.390,67.409,0.0,6.062,52.334654,4.861785,0.0,0.44327,3.93739,9.12144,7.546875,-24.3093755,-41.662501750000004,-130.56751892857142,-23.115366928571426,-3.0783584285714287,-0.001400400000000003,0.014101973333333337,-0.005463373333333334
2024-06-06 12:07:51.410,67.409,0.0,6.062,52.334654,4.861785,0.0,0.427717,3.934997,9.136993,7.5375,-24.300001,-41.6437515,-130.56105657142857,-23.09856357142857,-3.1155115714285717,-0.002108800000000001,0.015101546666666667,-0.005653346666666666
2024-06-06 12:07:51.430,67.409,0.0,6.062,52.334654,4.861785,0.0,0.403789,4.001996,9.262616,7.528125,-24.2906265,-41.62500125,-130.55459421428571,-23.081760214285715,-3.1526647142857143,-0.002817200000000006,0.016101119999999997,-0.005843320000000001
2024-06-06 12:07:51.440,67.409,0.0,6.062,52.334654,4.861785,0.0,0.47138599999999997,3.970889,9.291629,7.51875,-24.281252,-41.606251,-130.54813185714286,-23.064956857142857,-3.1898178571428573,-0.0035256000000000037,0.017100693333333333,-0.0060332933333333335
2024-06-06 12:07:51.450,67.409,0.0,6.062,52.334654,4.861785,0.0,0.538983,3.939782,9.320642,7.4859375,-24.314064,-41.60156375,-130.5416695,-23.048153499999998,-3.226971,-0.004234000000000002,0.01810026666666667,-0.006223266666666666
2024-06-06 12:07:51.470,67.409,0.0,6.062,52.334654,4.861785,0.0,0.711267,3.769892,9.200403,7.453125,-24.346876,-41.5968765,-130.53520714285713,-23.031350142857143,-3.264124142857143,-0.0049424000000000065,0.019099840000000007,-0.006413240000000001
2024-06-06 12:07:51.490,67.409,0.0,6.062,52.334654,4.861785,0.0,0.639482,3.893122,9.065208,7.4203125,-24.379688,-41.592189250000004,-130.52874478571428,-23.014546785714288,-3.301277285714286,-0.005650800000000004,0.02009941333333333,-0.006603213333333333
2024-06-06 12:07:51.500,67.409,0.0,6.062,52.334654,4.861785,0.0,0.6831510000000001,3.8907295,9.032307,7.3875,-24.4125,-41.587502,-130.52228242857143,-22.99774342857143,-3.3384304285714284,-0.006359200000000002,0.021098986666666666,-0.006793186666666668
2024-06-06 12:07:51.510,67.409,0.0,6.062,52.334654,4.861785,0.0,0.72682,3.888337,8.999406,7.37625,-24.431250000000002,-41.5800022,-130.51582007142858,-22.98094007142857,-3.3755835714285714,-0.007067600000000007,0.022098560000000003,-0.00698316
2024-06-06 12:07:51.530,67.409,0.0,6.062,52.334654,4.861785,0.0,0.617946,3.885944,8.895318,7.365,-24.450000000000003,-41.5725024,-130.5093577142857,-22.964136714285715,-3.4127367142857143,-0.007776000000000005,0.023098133333333326,-0.007173133333333333
2024-06-06 12:07:51.550,67.409,0.0,6.062,52.334654,4.861785,0.0,0.598804,3.958925,8.940782,7.35375,-24.46875,-41.5650026,-130.50289535714285,-22.94733335714286,-3.449889857142857,-0.008484400000000003,0.024097706666666663,-0.0073631066666666675
2024-06-06 12:07:51.552,67.409,0.0,6.062,52.334654,4.861785,0.0,0.604786,3.960520333333333,8.921639333333333,7.3425,-24.4875,-41.557502799999995,-130.496433,-22.93053,-3.487043,-0.009192800000000001,0.02509728,-0.00755308
2024-06-06 12:07:51.560,67.409,0.0,6.062,52.334654,4.861785,0.0,0.610768,3.9621156666666666,8.902496666666668,7.33125,-24.50625,-41.550003,-130.52377425,-22.9862776875,-3.5040003125,-0.009901200000000006,0.026096853333333336,-0.007743053333333333
2024-06-06 12:07:51.570,67.409,0.0,6.062,52.334654,4.861785,0.0,0.61675,3.963711,8.883354,7.305,-24.5400002,-41.572502799999995,-130.5511155,-23.042025375,-3.520957625,-0.010609600000000004,0.027096426666666673,-0.007933026666666667
2024-06-06 12:07:51.573,67.409,0.0,6.062,52.334654,4.861785,0.0,0.5922235,3.918247,8.9940225,7.27875,-24.5737504,-41.5950026,-130.57845675,-23.0977730625,-3.5379149375,-0.011318,0.028096,-0.008123
2024-06-06 12:07:51.590,67.409,0.0,6.062,52.334654,4.861785,0.0,0.567697,3.872783,9.104691,7.2525,-24.6075006,-41.6175024,-130.605798,-23.153520750000002,-3.55487225,-0.010619824324324324,0.026337959459459458,-0.007136905405405405
2024-06-06 12:07:51.609,67.409,0.0,6.062,52.334654,4.861785,0.0,0.530608,3.864408,9.219545,7.22625,-24.6412508,-41.640002200000005,-130.63313925,-23.2092684375,-3.5718295625,-0.009921648648648649,0.02457991891891892,-0.0061508108108108105
2024-06-06 12:07:51.620,67.409,0.0,6.062,52.334654,4.861785,0.0,0.5270189999999999,3.9314074999999997,9.2147595,7.2,-24.675001,-41.662502,-130.6604805,-23.265016125000002,-3.588786875,-0.009223472972972973,0.022821878378378378,-0.005164716216216216
2024-06-06 12:07:51.630,67.409,0.0,6.062,52.334654,4.861785,0.0,0.52343,3.998407,9.209974,7.2,-24.675001,-41.620314500000006,-130.68782175,-23.3207638125,-3.6057441875,-0.008525297297297297,0.021063837837837836,-0.004178621621621621
2024-06-06 12:07:51.650,67.409,0.0,6.062,52.334654,4.861785,0.0,0.6,4.103691,9.139386,7.2,-24.675001,-41.578127,-130.71516300000002,-23.3765115,-3.6227015,-0.007827121621621622,0.019305797297297297,-0.003192527027027026
2024-06-06 12:07:51.670,67.409,0.0,6.062,52.334654,4.861785,0.0,0.634696,4.010371,9.067601,7.2,-24.675001,-41.5359395,-130.74250425,-23.4322591875,-3.6396588125,-0.007128945945945946,0.017547756756756756,-0.0022064324324324314
2024-06-06 12:07:51.680,67.409,0.0,6.062,52.334654,4.861785,0.0,0.6185445,3.9954155,9.061619,7.2,-24.675001,-41.493752,-130.7698455,-23.488006875,-3.656616125,-0.00643077027027027,0.015789716216216214,-0.0012203378378378366
2024-06-06 12:07:51.690,67.409,0.0,6.062,52.334654,4.861785,0.0,0.602393,3.98046,9.055637,7.171875,-24.70312575,-41.498439250000004,-130.79718675,-23.543754562500002,-3.6735734375,-0.005732594594594595,0.014031675675675674,-0.00023424324324324182
2024-06-06 12:07:51.710,67.409,0.0,6.062,52.334654,4.861785,0.0,0.562912,4.07737,8.902496,7.143750000000001,-24.7312505,-41.5031265,-130.82452800000002,-23.59950225,-3.69053075,-0.005034418918918919,0.012273635135135134,0.0007518513513513538
2024-06-06 12:07:51.730,67.409,0.0,6.062,52.334654,4.861785,0.0,0.720838,3.966104,9.096315,7.1156250000000005,-24.75937525,-41.50781375,-130.85186925000002,-23.655249937500002,-3.7074880625,-0.004336243243243243,0.010515594594594592,0.0017379459459459477
2024-06-06 12:07:51.740,67.409,0.0,6.062,52.334654,4.861785,0.0,0.5659025,4.1341995,9.130413,7.0875,-24.7875,-41.512501,-130.8792105,-23.710997625,-3.724445375,-0.0036380675675675676,0.00875755405405405,0.0027240405405405416
2024-06-06 12:07:51.750,67.409,0.0,6.062,52.334654,4.861785,0.0,0.410967,4.302295,9.164511,7.08375,-24.7875,-41.5387514,-130.90655175,-23.766745312500003,-3.7414026875,-0.002939891891891892,0.006999513513513512,0.0037101351351351373
2024-06-06 12:07:51.752,67.409,0.0,6.062,52.334654,4.861785,0.0,0.4636095,4.238287,9.147162999999999,7.08,-24.7875,-41.5650018,-130.933893,-23.822493,-3.75836,-0.0022417162162162163,0.00524147297297297,0.004696229729729733
2024-06-06 12:07:51.770,67.409,0.0,6.062,52.334654,4.861785,0.0,0.516252,4.174279,9.129815,7.07625,-24.7875,-41.5912522,-130.92033507142858,-23.790769214285717,-3.7441235,-0.0015435405405405406,0.0034834324324324283,0.005682324324324327
2024-06-06 12:07:51.790,67.409,0.0,6.062,52.334654,4.861785,0.0,0.590429,4.015156,9.013762,7.0725,-24.7875,-41.617502599999995,-130.90677714285715,-23.75904542857143,-3.729887,-0.000845364864864865,0.00172539189189189,0.006668418918918921
2024-06-06 12:07:51.800,67.409,0.0,6.062,52.334654,4.861785,0.0,0.6753739999999999,4.08395,8.857032499999999,7.06875,-24.7875,-41.643753,-130.89321921428572,-23.727321642857145,-3.7156505,-0.00014718918918918932,-3.264864864865186e-05,0.007654513513513516
2024-06-06 12:07:51.810,67.409,0.0,6.062,52.334654,4.861785,0.0,0.760319,4.152744,8.700303,7.0406249999999995,-24.75937525,-41.582815249999996,-130.8796612857143,-23.695597857142857,-3.701414,0.0005509864864864863,-0.0017906891891891936,0.008640608108108112
2024-06-06 12:07:51.830,67.409,0.0,6.062,52.334654,4.861785,0.0,0.69691,4.126423,8.886943,7.012499999999999,-24.7312505,-41.5218775,-130.86610335714286,-23.663874071428573,-3.6871775,0.001249162162162162,-0.003548729729729732,0.009626702702702708
2024-06-06 12:07:51.850,67.409,0.0,6.062,52.334654,4.861785,0.0,0.657428,4.017549,9.050852,6.984375,-24.70312575,-41.46093975,-130.85254542857143,-23.632150285714285,-3.6729410000000002,0.0019473378378378377,-0.005306770270270277,0.0106127972972973
2024-06-06 12:07:51.860,67.409,0.0,6.062,52.334654,4.861785,0.0,0.6352945,3.9254255000000002,9.150154,6.95625,-24.675001,-41.400002,-130.8389875,-23.6004265,-3.6587045,0.0026455135135135133,-0.0070648108108108156,0.011598891891891895
2024-06-06 12:07:51.870,67.409,0.0,6.062,52.334654,4.861785,0.0,0.613161,3.833302,9.249456,6.909375,-24.70312575,-41.404689250000004,-130.82542957142857,-23.568702714285717,-3.644468,0.003343689189189189,-0.008822851351351354,0.012584986486486491
2024-06-06 12:07:51.890,67.409,0.0,6.062,52.334654,4.861785,0.0,0.47677,3.815356,9.357731,6.8625,-24.7312505,-41.4093765,-130.81187164285714,-23.53697892857143,-3.6302315,0.004041864864864865,-0.010580891891891899,0.013571081081081083
2024-06-06 12:07:51.910,67.409,0.0,6.062,52.334654,4.861785,0.0,0.509073,3.870391,9.201599,6.815625,-24.75937525,-41.41406375,-130.7983137142857,-23.505255142857145,-3.615995,0.004740040540540539,-0.012338932432432437,0.014557175675675679
2024-06-06 12:07:51.920,67.409,0.0,6.062,52.334654,4.861785,0.0,0.5359925,3.9128635000000003,9.067003,6.76875,-24.7875,-41.418751,-130.78475578571428,-23.473531357142857,-3.6017585,0.005438216216216216,-0.014096972972972976,0.015543270270270275
2024-06-06 12:07:51.930,67.409,0.0,6.062,52.334654,4.861785,0.0,0.562912,3.955336,8.932407,6.765,-24.7837502,-41.4600008,-130.77119785714285,-23.441807571428573,-3.587522,0.006136391891891893,-0.01585501351351352,0.016529364864864872
2024-06-06 12:07:51.950,67.409,0.0,6.062,52.334654,4.861785,0.0,0.634696,4.010371,8.885747,6.7612499999999995,-24.780000400000002,-41.5012506,-130.75763992857142,-23.410083785714285,-3.5732855,0.006834567567567567,-0.01761305405405406,0.017515459459459468
2024-06-06 12:07:51.951,67.409,0.0,6.062,52.334654,4.861785,0.0,0.5820540000000001,4.0319065,8.9539425,6.7575,-24.7762506,-41.5425004,-130.744082,-23.37836,-3.559049,0.007532743243243241,-0.019371094594594598,0.018501554054054056
2024-06-06 12:07:51.970,67.409,0.0,6.062,52.334654,4.861785,0.0,0.529412,4.053442,9.022138,6.75375,-24.772500800000003,-41.5837502,-130.74817286666666,-23.4114322,-3.559072733333333,0.008230918918918919,-0.021129135135135143,0.019487648648648652
2024-06-06 12:07:51.980,67.409,0.0,6.062,52.334654,4.861785,0.0,0.569492,4.0241295,9.0652085,6.75,-24.768751,-41.625,-130.75226373333334,-23.4445044,-3.5590964666666665,0.008929094594594596,-0.02288717567567568,0.020473743243243248
2024-06-06 12:07:51.990,67.409,0.0,6.062,52.334654,4.861785,0.0,0.609572,3.994817,9.108279,6.7275,-24.768751,-41.6362504,-130.75635459999998,-23.4775766,-3.5591201999999997,0.00962727027027027,-0.02464521621621622,0.021459837837837843
2024-06-06 12:07:52.000,66.443,0.0,5.889,52.33466,4.861791,0.0,0.5850455,3.9900314999999997,9.186046000000001,6.705,-24.768751,-41.6475008,-130.76044546666665,-23.510648800000002,-3.5591439333333335,0.010325445945945944,-0.026403256756756765,0.02244593243243244
2024-06-06 12:07:52.010,66.443,0.0,5.889,52.33466,4.861791,0.0,0.560519,3.985246,9.263813,6.6825,-24.768751,-41.6587512,-130.76453633333333,-23.543721,-3.5591676666666667,0.011023621621621621,-0.028161297297297303,0.023432027027027034
2024-06-06 12:07:52.030,66.443,0.0,5.889,52.33466,4.861791,0.0,0.585643,4.005585,9.111869,6.66,-24.768751,-41.6700016,-130.7686272,-23.5767932,-3.5591914,0.011721797297297299,-0.02991933783783784,0.02441812162162163
2024-06-06 12:07:52.040,66.443,0.0,5.889,52.33466,4.861791,0.0,0.5778665000000001,4.021736499999999,9.0681995,6.6375,-24.768751,-41.681252,-130.77271806666667,-23.6098654,-3.5592151333333333,0.012419972972972973,-0.03167737837837839,0.025404216216216226
2024-06-06 12:07:52.050,66.443,0.0,5.889,52.33466,4.861791,0.0,0.57009,4.037888,9.02453,6.665625,-24.7453135,-41.6765645,-130.7768089333333,-23.6429376,-3.5592388666666666,0.013118148648648647,-0.03343541891891892,0.02639031081081082
2024-06-06 12:07:52.070,66.443,0.0,5.889,52.33466,4.861791,0.0,0.531805,4.031906,8.952746,6.69375,-24.721876,-41.671877,-130.7808998,-23.6760098,-3.5592626,0.013816324324324324,-0.03519345945945947,0.027376405405405417
2024-06-06 12:07:52.090,66.443,0.0,5.889,52.33466,4.861791,0.0,0.552144,4.006782,8.94796,6.721875,-24.6984385,-41.667189500000006,-130.78499066666666,-23.709082,-3.559286333333333,0.014514500000000001,-0.03695150000000001,0.028362500000000006
2024-06-06 12:07:52.100,66.443,0.0,5.889,52.33466,4.861791,0.0,0.546162,4.006183500000001,8.977272,6.75,-24.675001,-41.662502,-130.78908153333333,-23.742154199999998,-3.5593100666666664,0.015212675675675675,-0.03870954054054056,0.0293485945945946
2024-06-06 12:07:52.110,66.443,0.0,5.889,52.33466,4.861791,0.0,0.54018,4.005585,9.006584,6.75375,-24.7012512,-41.685002000000004,-130.7931724,-23.7752264,-3.5593338,0.015910851351351347,-0.04046758108108109,0.030334689189189197
2024-06-06 12:07:52.130,66.443,0.0,5.889,52.33466,4.861791,0.0,0.583251,3.981657,9.104691,6.7575,-24.7275014,-41.707502000000005,-130.79726326666665,-23.8082986,-3.5593575333333334,0.016609027027027025,-0.042225621621621634,0.03132078378378379
2024-06-06 12:07:52.150,66.443,0.0,5.889,52.33466,4.861791,0.0,0.628714,4.049852,8.961121,6.7612499999999995,-24.7537516,-41.730002,-130.80135413333332,-23.8413708,-3.5593812666666667,0.017307202702702702,-0.04398366216216218,0.03230687837837839
2024-06-06 12:07:52.151,66.443,0.0,5.889,52.33466,4.861791,0.0,0.6358926666666667,4.0785659999999995,8.956335333333334,6.765,-24.7800018,-41.752502,-130.805445,-23.874443,-3.559405,0.01800537837837838,-0.04574170270270271,0.033292972972972984
2024-06-06 12:07:52.160,66.443,0.0,5.889,52.33466,4.861791,0.0,0.6430713333333333,4.10728,8.951549666666667,6.76875,-24.806252,-41.775002,-130.81552266666665,-23.8867074,-3.6300430666666665,0.01870355405405405,-0.047499743243243256,0.03427906756756758
2024-06-06 12:07:52.170,66.443,0.0,5.889,52.33466,4.861791,0.0,0.65025,4.135994,8.946764,6.796875,-24.7781265,-41.700002,-130.82560033333334,-23.898971799999998,-3.700681133333333,0.019401729729729728,-0.0492577837837838,0.03526516216216217
2024-06-06 12:07:52.190,66.443,0.0,5.889,52.33466,4.861791,0.0,0.681356,4.098905,9.010174,6.824999999999999,-24.750001,-41.625002,-130.835678,-23.9112362,-3.7713191999999998,0.020099905405405405,-0.05101582432432433,0.036251256756756764
2024-06-06 12:07:52.210,66.443,0.0,5.889,52.33466,4.861791,0.0,0.546162,4.036692,8.955139,6.8531249999999995,-24.721875500000003,-41.550002000000006,-130.84575566666666,-23.9235006,-3.8419572666666664,0.020798081081081075,-0.05277386486486488,0.03723735135135136
2024-06-06 12:07:52.220,66.443,0.0,5.889,52.33466,4.861791,0.0,0.5306085,3.9996030000000005,8.926425,6.88125,-24.69375,-41.475002,-130.85583333333332,-23.935765,-3.9125953333333334,0.021496256756756753,-0.05453190540540542,0.038223445945945955
2024-06-06 12:07:52.230,66.443,0.0,5.889,52.33466,4.861791,0.0,0.515055,3.962514,8.897711,6.8999999999999995,-24.71250025,-41.385939500000006,-130.865911,-23.9480294,-3.9832334,0.02219443243243243,-0.056289945945945954,0.03920954054054055
2024-06-06 12:07:52.250,66.443,0.0,5.889,52.33466,4.861791,0.0,0.595215,4.028317,8.920443,6.918749999999999,-24.7312505,-41.296877,-130.87598866666667,-23.9602938,-4.053871466666666,0.022892608108108108,-0.0580479864864865,0.040195635135135147
2024-06-06 12:07:52.270,66.443,0.0,5.889,52.33466,4.861791,0.0,0.725623,3.991228,9.098708,6.9375,-24.75000075,-41.2078145,-130.88606633333333,-23.9725582,-4.124509533333333,0.023590783783783785,-0.059806027027027045,0.04118172972972974
2024-06-06 12:07:52.280,66.443,0.0,5.889,52.33466,4.861791,0.0,0.6825525,3.9750765,9.1908315,6.95625,-24.768751,-41.118752,-130.896144,-23.9848226,-4.1951476,0.024288959459459455,-0.061564067567567576,0.04216782432432434
2024-06-06 12:07:52.290,66.443,0.0,5.889,52.33466,4.861791,0.0,0.639482,3.958925,9.282955,6.9421875,-24.8390635,-41.118752,-130.90622166666668,-23.997087,-4.265785666666667,0.024987135135135133,-0.06332210810810812,0.04315391891891893
2024-06-06 12:07:52.310,66.443,0.0,5.889,52.33466,4.861791,0.0,0.409771,3.859623,9.363713,6.928125,-24.909376,-41.118752,-130.91629933333334,-24.0093514,-4.3364237333333335,0.02568531081081081,-0.06508014864864867,0.04414001351351352
2024-06-06 12:07:52.330,66.443,0.0,5.889,52.33466,4.861791,0.0,0.232104,3.883551,9.209974,6.9140625,-24.9796885,-41.118752,-130.926377,-24.0216158,-4.4070618,0.02638348648648648,-0.0668381891891892,0.04512610810810812
2024-06-06 12:07:52.340,66.443,0.0,5.889,52.33466,4.861791,0.0,0.14835500000000001,3.8009985000000004,9.2285185,6.9,-25.050001,-41.118752,-130.93645466666666,-24.033880200000002,-4.477699866666667,0.027081662162162158,-0.06859622972972974,0.04611220270270271
2024-06-06 12:07:52.350,66.443,0.0,5.889,52.33466,4.861791,0.0,0.064606,3.718446,9.247063,6.8812500000000005,-25.050001,-41.1225018,-130.94653233333335,-24.0461446,-4.548337933333333,0.027779837837837836,-0.07035427027027029,0.04709829729729731
2024-06-06 12:07:52.350,66.443,0.0,5.889,52.33466,4.861791,0.0,0.2688935,3.830909,9.241081000000001,6.862500000000001,-25.050001,-41.1262516,-130.95661,-24.058409,-4.618976,0.028478013513513513,-0.07211231081081082,0.048084391891891905
2024-06-06 12:07:52.370,66.443,0.0,5.889,52.33466,4.861791,0.0,0.473181,3.943372,9.235099,6.84375,-25.050001,-41.1300014,-131.26653876923078,-24.153389461538463,-5.163061769230769,0.02917618918918919,-0.07387035135135137,0.0490704864864865
2024-06-06 12:07:52.390,66.443,0.0,5.889,52.33466,4.861791,0.0,1.085743,4.092923,8.85464,6.825,-25.050001,-41.1337512,-131.57646753846154,-24.248369923076925,-5.707147538461538,0.02987436486486486,-0.07562839189189191,0.050056581081081096
2024-06-06 12:07:52.400,66.443,0.0,5.889,52.33466,4.861791,0.0,1.4700905,4.159324,8.724231,6.80625,-25.050001,-41.137501,-131.8863963076923,-24.343350384615384,-6.251233307692308,0.030572540540540538,-0.07738643243243244,0.051042675675675685
2024-06-06 12:07:52.410,66.443,0.0,5.889,52.33466,4.861791,0.0,1.854438,4.225725,8.593822,6.75,-25.08281375,-41.1140635,-132.19632507692307,-24.438330846153846,-6.795319076923077,0.031270716216216216,-0.07914447297297299,0.05202877027027028
2024-06-06 12:07:52.430,66.443,0.0,5.889,52.33466,4.861791,0.0,2.349154,4.332205,8.703893,6.69375,-25.1156265,-41.090626,-132.50625384615384,-24.53331130769231,-7.339404846153846,0.031968891891891886,-0.08090251351351353,0.053014864864864876
2024-06-06 12:07:52.450,66.443,0.0,5.889,52.33466,4.861791,0.0,2.468795,4.43749,8.46102,6.6375,-25.148439250000003,-41.0671885,-132.8161826153846,-24.62829176923077,-7.883490615384615,0.03266706756756756,-0.08266055405405406,0.05400095945945947
2024-06-06 12:07:52.460,66.443,0.0,5.889,52.33466,4.861791,0.0,2.2764715,4.452744,8.538189,6.58125,-25.181252,-41.043751,-133.1261113846154,-24.72327223076923,-8.427576384615385,0.03336524324324324,-0.08441859459459461,0.05498705405405407
2024-06-06 12:07:52.470,66.443,0.0,5.889,52.33466,4.861791,0.0,2.084148,4.467998,8.615358,6.46875,-25.190627,-41.048438250000004,-133.43604015384616,-24.81825269230769,-8.971662153846154,0.03406341891891892,-0.08617663513513515,0.055973148648648656
2024-06-06 12:07:52.490,66.443,0.0,5.889,52.33466,4.861791,0.0,1.834099,4.377669,8.725428,6.356249999999999,-25.200001999999998,-41.0531255,-133.74596892307693,-24.913233153846154,-9.515747923076923,0.034761594594594596,-0.08793467567567569,0.05695924324324326
2024-06-06 12:07:52.510,66.443,0.0,5.889,52.33466,4.861791,0.0,2.102095,4.204189,8.95155,6.2437499999999995,-25.209377,-41.05781275,-134.0558976923077,-25.008213615384616,-10.059833692307691,0.035459770270270266,-0.08969271621621623,0.05794533783783785
2024-06-06 12:07:52.520,66.443,0.0,5.889,52.33466,4.861791,0.0,2.3961129999999997,4.168297000000001,9.108279499999998,6.13125,-25.218752,-41.0625,-134.36582646153846,-25.103194076923074,-10.603919461538462,0.03615794594594594,-0.09145075675675678,0.05893143243243245
2024-06-06 12:07:52.530,66.443,0.0,5.889,52.33466,4.861791,0.0,2.690131,4.132405,9.265009,5.9925,-25.2637516,-41.0212502,-134.67575523076923,-25.198174538461537,-11.14800523076923,0.03685612162162162,-0.09320879729729731,0.05991752702702704
2024-06-06 12:07:52.549,66.443,0.0,5.889,52.33466,4.861791,0.0,2.532803,4.272983,9.075378,5.85375,-25.3087512,-40.9800004,-134.985684,-25.293155,-11.692091,0.03755429729729729,-0.09496683783783785,0.06090362162162164
2024-06-06 12:07:52.550,66.443,0.0,5.889,52.33466,4.861791,0.0,2.375475,4.413561,8.885747,5.715,-25.3537508,-40.9387506,-135.00500159999999,-25.36876373333333,-11.605639533333333,0.03825247297297297,-0.0967248783783784,0.06188971621621623
2024-06-06 12:07:52.570,66.443,0.0,5.889,52.33466,4.861791,0.0,1.977668,4.362116,8.635697,5.57625,-25.3987504,-40.8975008,-135.0243192,-25.444372466666664,-11.519188066666667,0.038950648648648646,-0.09848291891891893,0.06287581081081083
2024-06-06 12:07:52.580,66.443,0.0,5.889,52.33466,4.861791,0.0,1.9557336666666667,4.277170666666667,8.660024,5.4375,-25.44375,-40.856251,-135.0436368,-25.5199812,-11.4327366,0.039648824324324324,-0.10024095945945947,0.06386190540540541
2024-06-06 12:07:52.587,66.443,0.0,5.889,52.33466,4.861791,0.0,1.9337993333333332,4.192225333333334,8.684351000000001,5.265,-25.4700002,-40.8450014,-135.0629544,-25.595589933333333,-11.346285133333334,0.040347,-0.101999,0.064848
2024-06-06 12:07:52.590,66.443,0.0,5.889,52.33466,4.861791,0.0,1.911865,4.10728,8.708678,5.0925,-25.4962504,-40.8337518,-135.082272,-25.671198666666665,-11.259833666666667,0.038673527027027026,-0.09886978378378379,0.06330768918918919
2024-06-06 12:07:52.610,66.443,0.0,5.889,52.33466,4.861791,0.0,1.854438,4.125226,8.626125,4.92,-25.5225006,-40.822502199999995,-135.1015896,-25.746807399999998,-11.1733822,0.03700005405405406,-0.09574056756756757,0.06176737837837838
2024-06-06 12:07:52.630,66.443,0.0,5.889,52.33466,4.861791,0.0,1.969293,4.298706,8.060822,4.7475000000000005,-25.5487508,-40.811252599999996,-135.1209072,-25.82241613333333,-11.086930733333332,0.03532658108108108,-0.09261135135135136,0.06022706756756757
2024-06-06 12:07:52.640,66.443,0.0,5.889,52.33466,4.861791,0.0,1.8544375,4.4306105,8.3572325,4.575,-25.575001,-40.800003,-135.1402248,-25.898024866666667,-11.000479266666666,0.03365310810810811,-0.08948213513513514,0.05868675675675676
2024-06-06 12:07:52.650,66.443,0.0,5.889,52.33466,4.861791,0.0,1.739582,4.562515,8.653643,4.4015625,-25.64062625,-40.8375025,-135.1595424,-25.9736336,-10.9140278,0.03197963513513513,-0.08635291891891893,0.05714644594594595
2024-06-06 12:07:52.670,66.443,0.0,5.889,52.33466,4.861791,0.0,1.526621,4.55055,8.542377,4.228125,-25.7062515,-40.875001999999995,-135.17886000000001,-26.049242333333332,-10.827576333333333,0.030306162162162163,-0.08322370270270271,0.05560613513513514
2024-06-06 12:07:52.690,66.443,0.0,5.889,52.33466,4.861791,0.0,1.509871,4.392026,8.508878,4.0546875,-25.77187675,-40.9125015,-135.1981776,-26.124851066666665,-10.741124866666667,0.028632689189189188,-0.08009448648648648,0.05406582432432433
2024-06-06 12:07:52.700,66.443,0.0,5.889,52.33466,4.861791,0.0,1.364208,4.191627,8.785847,3.88125,-25.837502,-40.950001,-135.2174952,-26.200459799999997,-10.6546734,0.026959216216216216,-0.07696527027027028,0.05252551351351352
2024-06-06 12:07:52.710,66.443,0.0,5.889,52.33466,4.861791,0.0,1.218545,3.991228,9.062816,3.77625,-25.8975018,-41.0025012,-135.2368128,-26.276068533333333,-10.568221933333334,0.025285743243243244,-0.07383605405405405,0.05098520270270271
