Timestamp,altitude,course,hacc,latitude,longitude,speed,Acceleration_X,Acceleration_Y,Acceleration_Z,MagneticField_X,MagneticField_Y,MagneticField_Z,AngularVelocity_X,AngularVelocity_Y,AngularVelocity_Z,Orientation_X,Orientation_Y,Orientation_Z
2024-06-06 12:12:02.585,44.895,0.0,3.841,52.33476,4.861955,0.0,0.262612,2.511866,9.339785,2.90625,-17.4375,-34.387501,-0.111853,0.058723,-0.04554,-159.472391,-12.059467,-2.899291
2024-06-06 12:12:02.605,44.895,0.0,3.841,52.33476,4.861955,0.0,-0.104088,2.252842,9.932009,2.90625,-17.4375,-34.387501,-0.111853,0.058723,-0.04554,-159.472391,-12.059467,-2.899291
2024-06-06 12:12:02.625,44.895,0.0,3.841,52.33476,4.861955,0.0,-0.222533,2.468795,10.11147,2.90625,-17.4375,-34.387501,-0.111853,0.058723,-0.04554,-159.472391,-12.059467,-2.899291
2024-06-06 12:12:02.645,44.895,0.0,3.841,52.33476,4.861955,0.0,0.335593,2.498705,9.515657,2.90625,-17.4375,-34.387501,-0.111853,0.058723,-0.04554,-159.472391,-12.059467,-2.899291
2024-06-06 12:12:02.665,44.895,0.0,3.841,52.33476,4.861955,0.0,0.438485,2.513062,9.126225,2.90625,-17.4375,-34.387501,-0.111853,0.058723,-0.04554,-159.472391,-12.059467,-2.899291
2024-06-06 12:12:02.685,44.895,0.0,3.841,52.33476,4.861955,0.0,0.214158,2.281556,9.080762,2.90625,-17.4375,-34.387501,-0.111853,0.058723,-0.04554,-159.472391,-12.059467,-2.899291
2024-06-06 12:12:02.705,44.895,0.0,3.841,52.33476,4.861955,0.0,0.039482,1.960918,9.586246,2.90625,-17.4375,-34.387501,-0.111853,0.058723,-0.04554,-159.472391,-12.059467,-2.899291
2024-06-06 12:12:02.725,44.895,0.0,3.841,52.33476,4.861955,0.0,0.314058,1.76351,9.84467,2.90625,-17.4375,-34.387501,-0.111853,0.058723,-0.04554,-159.472391,-12.059467,-2.899291
2024-06-06 12:12:02.745,44.895,0.0,3.841,52.33476,4.861955,0.0,0.562912,1.673779,9.580264,2.90625,-17.4375,-34.387501,-0.111853,0.058723,-0.04554,-159.472391,-12.059467,-2.899291
2024-06-06 12:12:02.765,44.895,0.0,3.841,52.33476,4.861955,0.0,0.669392,1.840081,9.655638,2.90625,-17.4375,-34.387501,-0.111853,0.058723,-0.04554,-159.472391,-12.059467,-2.899291
2024-06-06 12:12:02.785,44.895,0.0,3.841,52.33476,4.861955,0.0,0.669392,2.066202,9.733404,2.90625,-17.4375,-34.387501,-0.111853,0.058723,-0.04554,-159.472391,-12.059467,-2.899291
2024-06-06 12:12:02.805,44.895,0.0,3.841,52.33476,4.861955,0.0,0.602393,2.258825,9.906884,2.90625,-17.4375,-34.387501,-0.111853,0.058723,-0.04554,-159.472391,-12.059467,-2.899291
2024-06-06 12:12:02.825,44.895,0.0,3.841,52.33476,4.861955,0.0,0.735195,2.323431,10.027721,2.90625,-17.4375,-34.387501,-0.111853,0.058723,-0.04554,-159.472391,-12.059467,-2.899291
2024-06-06 12:12:02.845,44.895,0.0,3.841,52.33476,4.861955,0.0,0.760319,2.271985,10.002597,2.90625,-17.4375,-34.387501,-0.111853,0.058723,-0.04554,-159.472391,-12.059467,-2.899291
2024-06-06 12:12:02.865,44.895,0.0,3.841,52.33476,4.861955,0.0,0.554537,2.129612,9.705887,2.90625,-17.4375,-34.387501,-0.111853,0.058723,-0.04554,-159.472391,-12.059467,-2.899291
2024-06-06 12:12:02.885,44.895,0.0,3.841,52.33476,4.861955,0.0,0.070588,2.329413,9.759726,2.90625,-17.4375,-34.387501,-0.111853,0.058723,-0.04554,-159.472391,-12.059467,-2.899291
2024-06-06 12:12:02.901,44.895,0.0,3.841,52.33476,4.861955,0.0,0.052044,2.2408785,9.869197,2.90625,-17.4375,-34.387501,-0.111853,0.058723,-0.04554,-159.472391,-12.059467,-2.899291
2024-06-06 12:12:02.905,44.895,0.0,3.841,52.33476,4.861955,0.0,0.0335,2.152344,9.978668,2.97,-17.3362504,-34.3537508,-0.111853,0.058723,-0.04554,-159.472391,-12.059467,-2.899291
2024-06-06 12:12:02.922,44.895,0.0,3.841,52.33476,4.861955,0.0,0.26590250000000004,2.097309,9.8362955,3.03375,-17.2350008,-34.3200006,-0.111853,0.058723,-0.04554,-159.472391,-12.059467,-2.899291
2024-06-06 12:12:02.925,44.895,0.0,3.841,52.33476,4.861955,0.0,0.498305,2.042274,9.693923,3.0975,-17.1337512,-34.2862504,-0.10904602666666666,0.058245399999999996,-0.04484936,-159.472391,-12.059467,-2.899291
2024-06-06 12:12:02.945,44.895,0.0,3.841,52.33476,4.861955,0.0,1.31007,1.89033,9.329018,3.16125,-17.0325016,-34.2525002,-0.10623905333333333,0.057767799999999994,-0.04415872,-159.472391,-12.059467,-2.899291
2024-06-06 12:12:02.961,44.895,0.0,3.841,52.33476,4.861955,0.0,1.419542,1.7324035,9.223434000000001,3.225,-16.931252,-34.21875,-0.10343208,0.0572902,-0.04346808,-159.472391,-12.059467,-2.899291
2024-06-06 12:12:02.965,44.895,0.0,3.841,52.33476,4.861955,0.0,1.529014,1.574477,9.11785,3.265625,-16.912501666666667,-34.16562533333333,-0.10062510666666666,0.0568126,-0.04277744,-159.472391,-12.059467,-2.899291
2024-06-06 12:12:02.985,44.895,0.0,3.841,52.33476,4.861955,0.0,1.302892,2.352145,9.52164,3.30625,-16.893751333333334,-34.11250066666667,-0.09781813333333333,0.056334999999999996,-0.042086799999999994,-159.472391,-12.059467,-2.899291
2024-06-06 12:12:02.987,44.895,0.0,3.841,52.33476,4.861955,0.0,1.2372886666666667,2.438087,9.565508333333334,3.346875,-16.875001,-34.059376,-0.09501116,0.055857399999999995,-0.04139616,-159.472391,-12.059467,-2.899291
2024-06-06 12:12:03.000,44.895,0.0,3.841,52.33476,4.861955,0.0,1.1716853333333332,2.524029,9.609376666666666,3.3875,-16.856250666666668,-34.00625133333333,-0.09220418666666666,0.0553798,-0.040705519999999995,-159.39486286666664,-12.095599333333332,-3.0063858666666667
2024-06-06 12:12:03.005,44.895,0.0,3.841,52.33476,4.861955,0.0,1.106082,2.609971,9.653245,3.428125,-16.837500333333335,-33.95312666666667,-0.08939721333333334,0.0549022,-0.040014879999999996,-159.31733473333333,-12.131731666666667,-3.113480733333333
2024-06-06 12:12:03.021,44.895,0.0,3.841,52.33476,4.861955,0.0,1.1557330000000001,2.4373889999999996,9.668199999999999,3.46875,-16.81875,-33.900002,-0.08659024,0.0544246,-0.039324239999999996,-159.23980659999998,-12.167864,-3.2205756
2024-06-06 12:12:03.025,44.895,0.0,3.841,52.33476,4.861955,0.0,1.205384,2.264807,9.683155,3.45,-16.78125025,-33.979689,-0.08378326666666666,0.053946999999999995,-0.0386336,-159.16227846666666,-12.203996333333333,-3.3276704666666665
2024-06-06 12:12:03.045,44.895,0.0,3.841,52.33476,4.861955,0.0,0.924228,2.128416,9.67837,3.43125,-16.7437505,-34.059376,-0.08097629333333334,0.0534694,-0.03794296,-159.08475033333332,-12.240128666666667,-3.4347653333333334
2024-06-06 12:12:03.065,44.895,0.0,3.841,52.33476,4.861955,0.0,1.465604,2.637489,8.665607,3.4124999999999996,-16.706250750000002,-34.139063,-0.07816932,0.0529918,-0.03725232,-159.0072222,-12.276261,-3.5418602
2024-06-06 12:12:03.081,44.895,0.0,3.841,52.33476,4.861955,0.0,1.4404795,2.493022,8.5214395,3.39375,-16.668751,-34.21875,-0.07536234666666666,0.0525142,-0.03656168,-158.92969406666666,-12.312393333333333,-3.648955066666667
2024-06-06 12:12:03.085,44.895,0.0,3.841,52.33476,4.861955,0.0,1.415355,2.348555,8.377272,3.3796874999999997,-16.635938250000002,-34.232813,-0.07255537333333334,0.052036599999999995,-0.03587104,-158.85216593333334,-12.348525666666667,-3.7560499333333333
2024-06-06 12:12:03.105,44.895,0.0,3.841,52.33476,4.861955,0.0,1.156332,2.572883,8.610572,3.3656249999999996,-16.6031255,-34.246876,-0.06974839999999999,0.051559,-0.0351804,-158.7746378,-12.384658,-3.8631448
2024-06-06 12:12:03.125,44.895,0.0,3.841,52.33476,4.861955,0.0,0.619143,3.080161,9.136993,3.3515625,-16.57031275,-34.260939,-0.06694142666666666,0.0510814,-0.034489759999999994,-158.69710966666668,-12.420790333333333,-3.970239666666667
2024-06-06 12:12:03.141,44.895,0.0,3.841,52.33476,4.861955,0.0,0.366401,3.3029925,9.3017985,3.3375,-16.5375,-34.275002,-0.06413445333333334,0.0506038,-0.03379912,-158.61958153333333,-12.456922666666667,-4.0773345333333335
2024-06-06 12:12:03.145,44.895,0.0,3.841,52.33476,4.861955,0.0,0.113659,3.525824,9.466604,3.28125,-16.522500400000002,-34.312502,-0.06132748,0.050126199999999996,-0.033108479999999996,-158.54205340000001,-12.493055,-4.1844294
2024-06-06 12:12:03.165,44.895,0.0,3.841,52.33476,4.861955,0.0,-0.327817,3.344568,10.276575,3.225,-16.507500800000003,-34.350002,-0.058520506666666666,0.0496486,-0.032417839999999996,-158.46452526666667,-12.529187333333333,-4.291524266666666
2024-06-06 12:12:03.185,44.895,0.0,3.841,52.33476,4.861955,0.0,-0.357727,2.788237,10.762917,3.1687499999999997,-16.4925012,-34.387502,-0.05571353333333333,0.049171,-0.0317272,-158.38699713333335,-12.565319666666667,-4.398619133333334
2024-06-06 12:12:03.186,44.895,0.0,3.841,52.33476,4.861955,0.0,-0.23010966666666668,2.745166,10.630513666666667,3.1125,-16.4775016,-34.425002,-0.05290656,0.0486934,-0.031036559999999998,-158.309469,-12.601452,-4.505714
2024-06-06 12:12:03.201,44.895,0.0,3.841,52.33476,4.861955,0.0,-0.10249233333333335,2.702095,10.498110333333333,3.05625,-16.462502,-34.462502,-0.05009958666666667,0.048215799999999996,-0.03034592,-158.4826234,-12.913617200000001,-4.5111972
2024-06-06 12:12:03.205,44.895,0.0,3.841,52.33476,4.861955,0.0,0.025125,2.659024,10.365707,2.8875,-16.44375175,-34.603127,-0.04729261333333333,0.047738199999999995,-0.02965528,-158.6557778,-13.2257824,-4.5166804
2024-06-06 12:12:03.225,44.895,0.0,3.841,52.33476,4.861955,0.0,0.335593,3.027519,9.770494,2.71875,-16.4250015,-34.743752,-0.04448564000000001,0.0472606,-0.02896464,-158.8289322,-13.5379476,-4.5221636
2024-06-06 12:12:03.245,44.895,0.0,3.841,52.33476,4.861955,0.0,0.595215,3.051447,9.393623,2.55,-16.40625125,-34.884377,-0.04167866666666667,0.046783,-0.028273999999999997,-159.0020866,-13.8501128,-4.5276468
2024-06-06 12:12:03.261,44.895,0.0,3.841,52.33476,4.861955,0.0,0.6137589999999999,2.964109,9.241978,2.38125,-16.387501,-35.025002,-0.03887169333333333,0.0463054,-0.027583359999999998,-159.175241,-14.162278,-4.53313
2024-06-06 12:12:03.265,44.895,0.0,3.841,52.33476,4.861955,0.0,0.632303,2.876771,9.090333,2.2921875,-16.35937625,-35.043752,-0.036064719999999995,0.0458278,-0.02689272,-159.34839540000002,-14.4744432,-4.5386132
2024-06-06 12:12:03.285,44.895,0.0,3.841,52.33476,4.861955,0.0,1.08335,2.588436,9.12144,2.203125,-16.3312515,-35.062502,-0.03325774666666667,0.0453502,-0.02620208,-159.5215498,-14.7866084,-4.5440964
2024-06-06 12:12:03.305,44.895,0.0,3.841,52.33476,4.861955,0.0,0.312862,2.994019,9.200403,2.1140625,-16.30312675,-35.081252000000006,-0.030450773333333334,0.0448726,-0.02551144,-159.69470420000002,-15.098773600000001,-4.5495796
2024-06-06 12:12:03.321,44.895,0.0,3.841,52.33476,4.861955,0.0,0.255135,3.0717860000000003,9.197412,2.025,-16.275002,-35.100002,-0.027643799999999996,0.044395,-0.024820799999999997,-159.8678586,-15.4109388,-4.5550628
2024-06-06 12:12:03.325,44.895,0.0,3.841,52.33476,4.861955,0.0,0.197408,3.149553,9.194421,1.9078125,-16.354689,-35.2171895,-0.024836826666666673,0.043917399999999995,-0.024130159999999998,-160.04101300000002,-15.723104000000001,-4.560546
2024-06-06 12:12:03.345,44.895,0.0,3.841,52.33476,4.861955,0.0,0.326022,2.972484,9.145369,1.790625,-16.434376,-35.334377,-0.022029853333333335,0.0434398,-0.02343952,-160.2141674,-16.035269200000002,-4.5660292
2024-06-06 12:12:03.365,44.895,0.0,3.841,52.33476,4.861955,0.0,0.428913,2.903092,9.52164,1.6734375,-16.514063,-35.4515645,-0.019222879999999998,0.0429622,-0.02274888,-160.38732180000002,-16.3474344,-4.5715124000000005
2024-06-06 12:12:03.381,44.895,0.0,3.841,52.33476,4.861955,0.0,0.36490500000000003,2.9186455000000002,9.6047905,1.55625,-16.59375,-35.568752,-0.016415906666666674,0.0424846,-0.02205824,-160.5604762,-16.6595996,-4.5769956
2024-06-06 12:12:03.385,44.895,0.0,3.841,52.33476,4.861955,0.0,0.300897,2.934199,9.687941,1.48875,-16.6725002,-35.617501600000004,-0.013608933333333337,0.042007,-0.021367599999999997,-160.73363060000003,-16.971764800000003,-4.5824788000000005
2024-06-06 12:12:03.385,44.895,0.0,3.841,52.33476,4.861955,0.0,0.1558325,2.99043,9.635897,1.42125,-16.7512504,-35.666251200000005,-0.01080196,0.041529399999999994,-0.020676959999999998,-160.906785,-17.28393,-4.587962
2024-06-06 12:12:03.405,44.895,0.0,3.841,52.33476,4.861955,0.0,0.010768,3.046661,9.583853,1.35375,-16.8300006,-35.7150008,-0.007994986666666676,0.0410518,-0.01998632,-160.87566564285714,-17.317194285714287,-4.419818857142857
2024-06-06 12:12:03.425,44.895,0.0,3.841,52.33476,4.861955,0.0,-0.165105,3.150749,9.573085,1.28625,-16.9087508,-35.7637504,-0.005188013333333338,0.0405742,-0.01929568,-160.8445462857143,-17.35045857142857,-4.251675714285715
2024-06-06 12:12:03.441,44.895,0.0,3.841,52.33476,4.861955,0.0,-0.0035894999999999955,3.104089,9.555737,1.21875,-16.987501,-35.8125,-0.002381040000000001,0.040096599999999996,-0.01860504,-160.81342692857143,-17.383722857142857,-4.083532571428572
2024-06-06 12:12:03.445,44.895,0.0,3.841,52.33476,4.861955,0.0,0.157926,3.057429,9.538389,1.153125,-17.06718875,-35.92500025,0.0004259333333333365,0.039619,-0.017914399999999997,-160.7823075714286,-17.416987142857145,-3.9153894285714284
2024-06-06 12:12:03.465,44.895,0.0,3.841,52.33476,4.861955,0.0,0.323629,2.812165,9.174082,1.0875,-17.1468765,-36.0375005,0.00323290666666666,0.0391414,-0.017223759999999998,-160.75118821428572,-17.45025142857143,-3.7472462857142856
2024-06-06 12:12:03.485,44.895,0.0,3.841,52.33476,4.861955,0.0,-0.113659,2.919842,9.416355,1.021875,-17.226564250000003,-36.150000750000004,0.0060398799999999975,0.0386638,-0.01653312,-160.72006885714288,-17.483515714285716,-3.579103142857143
2024-06-06 12:12:03.501,44.895,0.0,3.841,52.33476,4.861955,0.0,0.006580500000000003,3.0029925,9.4019985,0.95625,-17.306252,-36.262501,0.008846853333333335,0.038186200000000003,-0.01584248,-160.6889495,-17.51678,-3.41096
2024-06-06 12:12:03.505,44.895,0.0,3.841,52.33476,4.861955,0.0,0.12682,3.086143,9.387642,1.03125,-17.4093765,-36.11718875,0.011653826666666658,0.037708599999999995,-0.01515184,-160.65783014285714,-17.550044285714286,-3.242816857142857
2024-06-06 12:12:03.525,44.895,0.0,3.841,52.33476,4.861955,0.0,0.286541,2.952145,9.288938,1.1062500000000002,-17.512501,-35.9718765,0.014460799999999982,0.037231,-0.0144612,-160.6267107857143,-17.58330857142857,-3.074673714285714
2024-06-06 12:12:03.545,44.895,0.0,3.841,52.33476,4.861955,0.0,0.259023,3.08375,9.286545,1.1812500000000001,-17.6156255,-35.826564250000004,0.017267773333333333,0.0367534,-0.013770560000000001,-160.59559142857142,-17.616572857142856,-2.906530571428571
2024-06-06 12:12:03.561,44.895,0.0,3.841,52.33476,4.861955,0.0,0.2168495,3.1106695,9.371789,1.25625,-17.71875,-35.681252,0.020074746666666657,0.0362758,-0.013079920000000002,-160.56447207142858,-17.649837142857145,-2.7383874285714285
2024-06-06 12:12:03.565,44.895,0.0,3.841,52.33476,4.861955,0.0,0.174676,3.137589,9.457033,1.41375,-17.7412502,-35.4787518,0.02288171999999998,0.0357982,-0.012389280000000003,-160.5333527142857,-17.68310142857143,-2.5702442857142858
2024-06-06 12:12:03.585,44.895,0.0,3.841,52.33476,4.861955,0.0,0.195015,3.129214,9.620942,1.57125,-17.7637504,-35.2762516,0.02568869333333333,0.0353206,-0.011698639999999996,-160.50223335714287,-17.716365714285715,-2.4021011428571426
2024-06-06 12:12:03.585,44.895,0.0,3.841,52.33476,4.861955,0.0,0.23300099999999999,3.120839,9.5336035,1.7287500000000002,-17.786250600000002,-35.0737514,0.028495666666666655,0.034843,-0.011007999999999997,-160.471114,-17.74963,-2.233958
2024-06-06 12:12:03.605,44.895,0.0,3.841,52.33476,4.861955,0.0,0.270987,3.112464,9.446265,1.8862500000000002,-17.808750800000002,-34.8712512,0.03130264000000001,0.034365400000000004,-0.010317359999999998,-160.4593366923077,-17.767397692307693,-2.146142923076923
2024-06-06 12:12:03.621,44.895,0.0,3.841,52.33476,4.861955,0.0,0.23120649999999998,3.091527,9.4211405,2.04375,-17.831251,-34.668751,0.03410961333333333,0.033887799999999996,-0.009626719999999998,-160.44755938461537,-17.785165384615386,-2.058327846153846
2024-06-06 12:12:03.625,44.895,0.0,3.841,52.33476,4.861955,0.0,0.191426,3.07059,9.396016,2.1796875,-17.91093875,-34.485938250000004,0.036916586666666654,0.0334102,-0.008936079999999999,-160.43578207692306,-17.802933076923075,-1.9705127692307691
2024-06-06 12:12:03.645,44.895,0.0,3.841,52.33476,4.861955,0.0,0.102891,3.072983,9.308679,2.315625,-17.9906265,-34.3031255,0.039723560000000005,0.0329326,-0.00824544,-160.42400476923078,-17.82070076923077,-1.8826976923076923
2024-06-06 12:12:03.665,44.895,0.0,3.841,52.33476,4.861955,0.0,0.111266,3.072983,9.355338,2.4515625,-18.070314250000003,-34.12031275,0.04253053333333333,0.032455,-0.0075548,-160.41222746153846,-17.83846846153846,-1.7948826153846154
2024-06-06 12:12:03.681,44.895,0.0,3.841,52.33476,4.861955,0.0,0.06400800000000001,3.0771699999999997,9.349356,2.5875,-18.150002,-33.9375,0.04533750666666665,0.0319774,-0.006864160000000001,-160.40045015384615,-17.856236153846154,-1.7070675384615384
2024-06-06 12:12:03.685,44.895,0.0,3.841,52.33476,4.861955,0.0,0.01675,3.081357,9.343374,2.765625,-18.24843925,-33.689063000000004,0.04814448,0.0314998,-0.006173520000000002,-160.38867284615384,-17.874003846153844,-1.6192524615384616
2024-06-06 12:12:03.705,44.895,0.0,3.841,52.33476,4.861955,0.0,-0.004786,3.047858,9.525229,2.9437499999999996,-18.3468765,-33.440626,0.05095145333333333,0.0310222,-0.0054828800000000025,-160.37689553846153,-17.891771538461537,-1.5314373846153846
2024-06-06 12:12:03.725,44.895,0.0,3.841,52.33476,4.861955,0.0,-0.01675,3.156731,9.482158,3.1218749999999997,-18.44531375,-33.192189,0.05375842666666665,0.0305446,-0.004792239999999996,-160.3651182307692,-17.90953923076923,-1.4436223076923076
2024-06-06 12:12:03.740,44.895,0.0,3.841,52.33476,4.861955,0.0,0.0418745,3.1633115,9.3765745,3.3,-18.543751,-32.943752,0.0565654,0.030067,-0.004101599999999997,-160.35334092307693,-17.927306923076923,-1.3558072307692308
2024-06-06 12:12:03.745,44.895,0.0,3.841,52.33476,4.861955,0.0,0.100499,3.169892,9.270991,3.4012499999999997,-18.570001,-32.8612516,0.059372373333333325,0.029589400000000002,-0.0034109599999999976,-160.34156361538462,-17.945074615384613,-1.2679921538461538
2024-06-06 12:12:03.765,44.895,0.0,3.841,52.33476,4.861955,0.0,0.07657,3.183052,9.327821,3.5025,-18.596251000000002,-32.7787512,0.06217934666666665,0.0291118,-0.0027203199999999983,-160.3297863076923,-17.962842307692306,-1.1801770769230768
2024-06-06 12:12:03.784,44.895,0.0,3.841,52.33476,4.861955,0.0,-0.049052999999999986,3.1519455,9.4175515,3.60375,-18.622501,-32.6962508,0.06498632,0.028634200000000002,-0.002029679999999999,-160.318009,-17.98061,-1.092362
2024-06-06 12:12:03.785,44.895,0.0,3.841,52.33476,4.861955,0.0,-0.174676,3.120839,9.507282,3.705,-18.648751,-32.6137504,0.06779329333333332,0.0281566,-0.0013390399999999997,-160.3453989375,-18.014343125,-1.0338646875000002
2024-06-06 12:12:03.801,44.895,0.0,3.841,52.33476,4.861955,0.0,-0.18843500000000002,3.2386855,9.4935235,3.80625,-18.675001,-32.53125,0.07060026666666665,0.027679,-0.0006484000000000004,-160.372788875,-18.048076249999998,-0.975367375
2024-06-06 12:12:03.805,44.895,0.0,3.841,52.33476,4.861955,0.0,-0.202194,3.356532,9.479765,3.8484375,-18.70312575,-32.46562575,0.07340724,0.0272014,4.2239999999998945e-05,-160.4001788125,-18.081809375,-0.9168700625
2024-06-06 12:12:03.825,44.895,0.0,3.841,52.33476,4.861955,0.0,-0.02991,3.259623,9.218349,3.890625,-18.7312505,-32.4000015,0.07621421333333332,0.0267238,0.0007328799999999983,-160.42756874999998,-18.1155425,-0.85837275
2024-06-06 12:12:03.845,44.895,0.0,3.841,52.33476,4.861955,0.0,-0.017946,3.282354,9.235099,3.9328125,-18.75937525,-32.334377249999996,0.07902118666666665,0.026246199999999997,0.0014235199999999976,-160.45495868749998,-18.149275624999998,-0.7998754375000001
2024-06-06 12:12:03.861,44.895,0.0,3.841,52.33476,4.861955,0.0,-0.04665999999999999,3.324827,9.246465,3.975,-18.7875,-32.268753,0.08182816,0.025768600000000003,0.002114159999999997,-160.482348625,-18.18300875,-0.741378125
2024-06-06 12:12:03.865,44.895,0.0,3.841,52.33476,4.861955,0.0,-0.075374,3.3673,9.257831,4.0875,-18.8109375,-32.137502749999996,0.08463513333333332,0.025291,0.002804800000000003,-160.5097385625,-18.216741875,-0.6828808125000001
2024-06-06 12:12:03.885,44.895,0.0,3.841,52.33476,4.861955,0.0,-0.011964,3.324229,9.400802,4.2,-18.834375,-32.0062525,0.08744210666666664,0.0248134,0.0034954400000000024,-160.5371285,-18.250475,-0.6243835
2024-06-06 12:12:03.905,44.895,0.0,3.841,52.33476,4.861955,0.0,-0.003589,3.169892,9.500104,4.3125,-18.8578125,-31.87500225,0.09024908,0.024335799999999998,0.004186080000000002,-160.5645184375,-18.284208125,-0.5658861875000001
2024-06-06 12:12:03.921,44.895,0.0,3.841,52.33476,4.861955,0.0,0.046062,3.196213,9.436694,4.425,-18.88125,-31.743752,0.09305605333333332,0.023858200000000003,0.004876720000000001,-160.591908375,-18.31794125,-0.5073888750000001
2024-06-06 12:12:03.925,44.895,0.0,3.841,52.33476,4.861955,0.0,0.095713,3.222534,9.373284,4.45125,-18.892500000000002,-31.7025016,0.09586302666666664,0.0233806,0.00556736,-160.6192983125,-18.351674375,-0.44889156250000006
2024-06-06 12:12:03.937,44.895,0.0,3.841,52.33476,4.861955,0.0,0.0879365,3.24048,9.3744805,4.4775,-18.903750000000002,-31.661251200000002,0.09867,0.022903,0.006258,-160.64668825,-18.3854075,-0.39039425000000005
2024-06-06 12:12:03.945,44.895,0.0,3.841,52.33476,4.861955,0.0,0.08016,3.258426,9.375677,4.50375,-18.915,-31.6200008,0.09739878666666665,0.022407653333333333,0.006135506666666666,-160.6740781875,-18.419140625,-0.33189693750000004
2024-06-06 12:12:03.965,44.895,0.0,3.841,52.33476,4.861955,0.0,0.049053,3.302693,9.297313,4.53,-18.92625,-31.5787504,0.09612757333333333,0.021912306666666666,0.006013013333333333,-160.701468125,-18.452873750000002,-0.27339962500000003
2024-06-06 12:12:03.981,44.895,0.0,3.841,52.33476,4.861955,0.0,0.023928333333333333,3.321038,9.319047333333334,4.55625,-18.9375,-31.5375,0.09485636,0.02141696,0.00589052,-160.7288580625,-18.486606875,-0.21490231250000003
2024-06-06 12:12:03.984,44.895,0.0,3.841,52.33476,4.861955,0.0,-0.001196333333333334,3.3393829999999998,9.340781666666667,4.515625,-18.962500333333335,-31.603125333333335,0.09358514666666666,0.020921613333333332,0.005768026666666666,-160.756248,-18.52034,-0.156405
2024-06-06 12:12:03.985,44.895,0.0,3.841,52.33476,4.861955,0.0,-0.026321,3.357728,9.362516,4.4750000000000005,-18.987500666666666,-31.668750666666668,0.09231393333333332,0.020426266666666665,0.005645533333333333,-160.76934553333334,-18.582101533333333,-0.16887506666666666
2024-06-06 12:12:04.000,44.956,0.0,3.79,52.334761,4.861958,0.0,0.010169500000000001,3.3493535,9.378069499999999,4.434375,-19.012501,-31.734376,0.09104272,0.019930919999999998,0.00552304,-160.78244306666667,-18.64386306666667,-0.18134513333333332
2024-06-06 12:12:04.005,44.956,0.0,3.79,52.334761,4.861958,0.0,0.04666,3.340979,9.393623,4.39375,-19.037501333333335,-31.800001333333334,0.08977150666666667,0.019435573333333334,0.005400546666666666,-160.7955406,-18.7056246,-0.1938152
2024-06-06 12:12:04.025,44.956,0.0,3.79,52.334761,4.861958,0.0,0.130409,3.336193,9.269794,4.353125,-19.062501666666666,-31.865626666666667,0.08850029333333333,0.018940226666666667,0.005278053333333333,-160.80863813333332,-18.767386133333336,-0.20628526666666666
2024-06-06 12:12:04.041,44.956,0.0,3.79,52.334761,4.861958,0.0,0.1929215,3.2763725,9.269794,4.3125,-19.087502,-31.931252,0.08722907999999999,0.01844488,0.00515556,-160.82173566666665,-18.829147666666668,-0.21875533333333333
2024-06-06 12:12:04.045,44.956,0.0,3.79,52.334761,4.861958,0.0,0.255434,3.216552,9.269794,4.2140625,-19.167189,-32.1140645,0.08595786666666666,0.017949533333333333,0.005033066666666666,-160.8348332,-18.8909092,-0.23122539999999997
2024-06-06 12:12:04.065,44.956,0.0,3.79,52.334761,4.861958,0.0,0.175872,3.250051,9.349357,4.115625,-19.246876,-32.296877,0.08468665333333333,0.017454186666666666,0.004910573333333333,-160.84793073333333,-18.952670733333335,-0.24369546666666664
2024-06-06 12:12:04.085,44.956,0.0,3.79,52.334761,4.861958,0.0,0.179462,3.361318,9.292527,4.0171875,-19.326563,-32.479689500000006,0.08341544,0.01695884,0.00478808,-160.86102826666666,-19.014432266666667,-0.2561655333333333
2024-06-06 12:12:04.101,44.956,0.0,3.79,52.334761,4.861958,0.0,0.227019,3.4034915,9.2656075,3.91875,-19.40625,-32.662502,0.08214422666666665,0.016463493333333332,0.0046655866666666665,-160.8741258,-19.076193800000002,-0.2686356
2024-06-06 12:12:04.105,44.956,0.0,3.79,52.334761,4.861958,0.0,0.274576,3.445665,9.238688,3.9140625,-19.467188,-32.71875175,0.08087301333333333,0.015968146666666665,0.004543093333333333,-160.88722333333334,-19.137955333333334,-0.28110566666666664
2024-06-06 12:12:04.125,44.956,0.0,3.79,52.334761,4.861958,0.0,0.421735,3.372085,9.27817,3.909375,-19.528126,-32.7750015,0.0796018,0.0154728,0.004420599999999999,-160.90032086666668,-19.199716866666666,-0.2935757333333333
2024-06-06 12:12:04.145,44.956,0.0,3.79,52.334761,4.861958,0.0,0.311665,3.167499,9.48814,3.9046875,-19.589064,-32.83125125,0.07833058666666666,0.014977453333333333,0.004298106666666666,-160.91341839999998,-19.2614784,-0.3060458
2024-06-06 12:12:04.161,44.956,0.0,3.79,52.334761,4.861958,0.0,0.1881355,3.216552,9.5449695,3.9,-19.650002,-32.887501,0.07705937333333332,0.014482106666666666,0.004175613333333333,-160.92651593333332,-19.323239933333333,-0.31851586666666665
2024-06-06 12:12:04.165,44.956,0.0,3.79,52.334761,4.861958,0.0,0.064606,3.265605,9.601799,3.91125,-19.6800018,-32.8912508,0.07578816,0.013986759999999999,0.0040531199999999995,-160.93961346666666,-19.38500146666667,-0.3309859333333333
2024-06-06 12:12:04.183,44.956,0.0,3.79,52.334761,4.861958,0.0,0.0137585,3.29731,9.490533,3.9225,-19.710001600000002,-32.8950006,0.07451694666666667,0.013491413333333334,0.003930626666666666,-160.952711,-19.446763,-0.343456
2024-06-06 12:12:04.185,44.956,0.0,3.79,52.334761,4.861958,0.0,-0.037089,3.329015,9.379267,3.93375,-19.7400014,-32.8987504,0.07324573333333333,0.012996066666666667,0.0038081333333333327,-160.94580764285715,-19.444587785714287,-0.4128995
2024-06-06 12:12:04.205,44.956,0.0,3.79,52.334761,4.861958,0.0,0.023928,3.260819,9.182457,3.945,-19.770001200000003,-32.9025002,0.07197451999999999,0.01250072,0.0036856399999999996,-160.93890428571427,-19.442412571428573,-0.48234299999999997
2024-06-06 12:12:04.221,44.956,0.0,3.79,52.334761,4.861958,0.0,0.0334995,3.3266215,9.178269499999999,3.95625,-19.800001,-32.90625,0.07070330666666666,0.012005373333333333,0.003563146666666666,-160.93200092857143,-19.44023735714286,-0.5517865
2024-06-06 12:12:04.225,44.956,0.0,3.79,52.334761,4.861958,0.0,0.043071,3.392424,9.174082,3.9421874999999997,-19.86562575,-32.88750075,0.06943209333333333,0.011510026666666666,0.003440653333333333,-160.92509757142858,-19.43806214285714,-0.62123
2024-06-06 12:12:04.245,44.956,0.0,3.79,52.334761,4.861958,0.0,0.199801,3.463611,9.145369,3.9281249999999996,-19.9312505,-32.8687515,0.06816088,0.011014679999999999,0.0033181599999999997,-160.9181942142857,-19.435886928571428,-0.6906734999999999
2024-06-06 12:12:04.265,44.956,0.0,3.79,52.334761,4.861958,0.0,0.4002,3.282354,9.147761,3.9140625,-19.996875250000002,-32.850002249999996,0.06688966666666665,0.010519333333333334,0.003195666666666666,-160.91129085714286,-19.433711714285714,-0.760117
2024-06-06 12:12:04.281,44.956,0.0,3.79,52.334761,4.861958,0.0,0.276072,3.203391,9.3496555,3.9,-20.0625,-32.831253,0.06561845333333333,0.010023986666666667,0.003073173333333333,-160.90438749999998,-19.4315365,-0.8295605
2024-06-06 12:12:04.285,44.956,0.0,3.79,52.334761,4.861958,0.0,0.151944,3.124428,9.55155,3.88125,-20.076563,-32.896877249999996,0.06434724,0.00952864,0.0029506799999999994,-160.89748414285714,-19.429361285714286,-0.899004
2024-06-06 12:12:04.305,44.956,0.0,3.79,52.334761,4.861958,0.0,0.027517,3.228516,9.679565,3.8625,-20.090626,-32.9625015,0.06307602666666666,0.009033293333333333,0.002828186666666666,-160.8905807857143,-19.427186071428572,-0.9684475
2024-06-06 12:12:04.325,44.956,0.0,3.79,52.334761,4.861958,0.0,0.088534,3.263212,9.358928,3.84375,-20.104689,-33.02812575,0.061804813333333326,0.008537946666666666,0.0027056933333333326,-160.88367742857142,-19.42501085714286,-1.0378910000000001
2024-06-06 12:12:04.341,44.956,0.0,3.79,52.334761,4.861958,0.0,0.06340950000000001,3.266203,9.308379500000001,3.825,-20.118752,-33.09375,0.06053359999999999,0.0080426,0.0025831999999999995,-160.87677407142857,-19.42283564285714,-1.1073344999999999
2024-06-06 12:12:04.344,44.956,0.0,3.79,52.334761,4.861958,0.0,0.038285,3.269194,9.257831,3.7725,-20.156252000000002,-33.1950004,0.05926238666666666,0.0075472533333333335,0.002460706666666666,-160.86987071428572,-19.420660428571427,-1.176778
2024-06-06 12:12:04.365,44.956,0.0,3.79,52.334761,4.861958,0.0,0.062213,3.264408,9.221938,3.72,-20.193752,-33.2962508,0.057991173333333326,0.0070519066666666665,0.0023382133333333327,-160.86296735714285,-19.418485214285713,-1.2462215
2024-06-06 12:12:04.383,44.956,0.0,3.79,52.334761,4.861958,0.0,0.13758700000000001,3.203391,9.198608499999999,3.6675,-20.231252,-33.3975012,0.05671995999999999,0.0065565599999999995,0.002215719999999999,-160.856064,-19.41631,-1.315665
2024-06-06 12:12:04.385,44.956,0.0,3.79,52.334761,4.861958,0.0,0.212961,3.142374,9.175279,3.615,-20.268752,-33.498751600000006,0.05544874666666666,0.0060612133333333325,0.0020932266666666664,-160.8383456,-19.385628133333334,-1.2766372666666668
2024-06-06 12:12:04.401,44.956,0.0,3.79,52.334761,4.861958,0.0,0.2312065,3.1339995,9.262916,3.5625,-20.306252,-33.600002,0.054177533333333326,0.0055658666666666655,0.001970733333333333,-160.8206272,-19.354946266666666,-1.2376095333333335
2024-06-06 12:12:04.405,44.956,0.0,3.79,52.334761,4.861958,0.0,0.249452,3.125625,9.350553,3.5625,-20.3156265,-33.61875225,0.05290631999999999,0.0050705199999999985,0.0018482399999999993,-160.8029088,-19.3242644,-1.1985818000000001
2024-06-06 12:12:04.425,44.956,0.0,3.79,52.334761,4.861958,0.0,0.248255,3.14716,9.502497,3.5625,-20.325001,-33.6375025,0.05163510666666666,0.0045751733333333315,0.0017257466666666657,-160.7851904,-19.293582533333332,-1.1595540666666668
2024-06-06 12:12:04.445,44.956,0.0,3.79,52.334761,4.861958,0.0,0.27338,3.191427,9.431909,3.5625,-20.3343755,-33.65625275,0.050363893333333326,0.004079826666666668,0.001603253333333333,-160.767472,-19.262900666666667,-1.1205263333333333
2024-06-06 12:12:04.461,44.956,0.0,3.79,52.334761,4.861958,0.0,0.2548355,3.1956145,9.4432745,3.5625,-20.34375,-33.675003,0.04909267999999999,0.003584480000000001,0.0014807599999999994,-160.7497536,-19.2322188,-1.0814986000000002
2024-06-06 12:12:04.465,44.956,0.0,3.79,52.334761,4.861958,0.0,0.236291,3.199802,9.45464,3.5625,-20.31562525,-33.670314749999996,0.04782146666666666,0.003089133333333334,0.0013582666666666658,-160.73203519999998,-19.201536933333333,-1.0424708666666667
2024-06-06 12:12:04.485,44.956,0.0,3.79,52.334761,4.861958,0.0,0.236291,3.246462,9.423533,3.5625,-20.2875005,-33.6656265,0.046550253333333326,0.002593786666666667,0.001235773333333333,-160.7143168,-19.170855066666665,-1.0034431333333333
2024-06-06 12:12:04.505,44.956,0.0,3.79,52.334761,4.861958,0.0,0.2333,3.272783,9.375677,3.5625,-20.25937575,-33.66093825,0.04527903999999999,0.00209844,0.0011132799999999995,-160.6965984,-19.1401732,-0.9644154
2024-06-06 12:12:04.520,44.956,0.0,3.79,52.334761,4.861958,0.0,0.238385,3.251846,9.367302500000001,3.5625,-20.231251,-33.65625,0.04400782666666666,0.001603093333333333,0.000990786666666666,-160.67888,-19.10949133333333,-0.9253876666666667
2024-06-06 12:12:04.525,44.956,0.0,3.79,52.334761,4.861958,0.0,0.24347,3.230909,9.358928,3.54375,-20.25000125,-33.689063000000004,0.042736613333333326,0.001107746666666666,0.0008682933333333323,-160.66116159999999,-19.078809466666666,-0.8863599333333334
2024-06-06 12:12:04.545,44.956,0.0,3.79,52.334761,4.861958,0.0,0.25663,3.234498,9.334999,3.525,-20.2687515,-33.721876,0.04146539999999999,0.0006123999999999991,0.0007457999999999996,-160.64344319999998,-19.048127599999997,-0.8473322000000001
2024-06-06 12:12:04.565,44.956,0.0,3.79,52.334761,4.861958,0.0,0.257827,3.229712,9.256635,3.5062499999999996,-20.28750175,-33.754689,0.04019418666666666,0.00011705333333333207,0.000623306666666666,-160.6257248,-19.017445733333332,-0.8083044666666668
2024-06-06 12:12:04.581,44.956,0.0,3.79,52.334761,4.861958,0.0,0.23489566666666664,3.2041886666666666,9.274381666666667,3.4875,-20.306252,-33.787502,0.038922973333333326,-0.0003782933333333349,0.0005008133333333324,-160.6080064,-18.986763866666664,-0.7692767333333334
2024-06-06 12:12:04.582,44.956,0.0,3.79,52.334761,4.861958,0.0,0.21196433333333334,3.1786653333333335,9.292128333333332,3.44625,-20.2987518,-33.843752,0.03765175999999999,-0.0008736400000000019,0.0003783199999999997,-160.590288,-18.956082,-0.730249
2024-06-06 12:12:04.585,44.956,0.0,3.79,52.334761,4.861958,0.0,0.189033,3.153142,9.309875,3.405,-20.291251600000002,-33.900002,0.03638054666666666,-0.0013689866666666654,0.0002558266666666661,-160.5830782142857,-18.948325785714285,-0.7733252142857143
2024-06-06 12:12:04.605,44.956,0.0,3.79,52.334761,4.861958,0.0,0.179462,3.110071,9.373284,3.36375,-20.2837514,-33.956252000000006,0.035109333333333326,-0.0018643333333333324,0.00013333333333333253,-160.57586842857143,-18.94056957142857,-0.8164014285714286
2024-06-06 12:12:04.625,44.956,0.0,3.79,52.334761,4.861958,0.0,0.118445,3.184249,9.486943,3.3225,-20.2762512,-34.012502000000005,0.033838119999999985,-0.0023596799999999994,1.083999999999894e-05,-160.56865864285714,-18.932813357142855,-0.8594776428571429
2024-06-06 12:12:04.641,44.956,0.0,3.79,52.334761,4.861958,0.0,0.1034895,3.1884365,9.460622,3.28125,-20.268751,-34.068752,0.03256690666666666,-0.0028550266666666664,-0.00011165333333333378,-160.56144885714284,-18.925057142857142,-0.9025538571428572
2024-06-06 12:12:04.645,44.956,0.0,3.79,52.334761,4.861958,0.0,0.088534,3.192624,9.434301,3.2015625,-20.268751,-34.260939500000006,0.03129569333333333,-0.0033503733333333334,-0.00023414666666666736,-160.55423907142855,-18.91730092857143,-0.9456300714285715
2024-06-06 12:12:04.665,44.956,0.0,3.79,52.334761,4.861958,0.0,0.162712,3.160321,9.430713,3.121875,-20.268751,-34.453127,0.030024479999999992,-0.0038457200000000004,-0.00035664000000000095,-160.54702928571427,-18.909544714285712,-0.9887062857142856
2024-06-06 12:12:04.685,44.956,0.0,3.79,52.334761,4.861958,0.0,0.223729,3.161517,9.379267,3.0421875,-20.268751,-34.6453145,0.028753266666666652,-0.004341066666666667,-0.00047913333333333454,-160.5398195,-18.9017885,-1.0317825
2024-06-06 12:12:04.701,44.956,0.0,3.79,52.334761,4.861958,0.0,0.20757750000000003,3.208775,9.332906000000001,2.9625,-20.268751,-34.837502,0.027482053333333326,-0.004836413333333334,-0.0006016266666666673,-160.5326097142857,-18.894032285714285,-1.0748587142857142
2024-06-06 12:12:04.705,44.956,0.0,3.79,52.334761,4.861958,0.0,0.191426,3.256033,9.286545,2.9015625,-20.2921885,-35.0343765,0.02621084,-0.005331760000000001,-0.0007241200000000008,-160.52539992857143,-18.88627607142857,-1.1179349285714286
2024-06-06 12:12:04.725,44.956,0.0,3.79,52.334761,4.861958,0.0,0.154337,3.236891,9.302098,2.840625,-20.315626,-35.231251,0.02493962666666666,-0.005827106666666668,-0.0008466133333333344,-160.51819014285715,-18.878519857142855,-1.1610111428571428
2024-06-06 12:12:04.745,44.956,0.0,3.79,52.334761,4.861958,0.0,0.272184,3.069393,9.376874,2.7796875,-20.3390635,-35.4281255,0.02366841333333332,-0.006322453333333332,-0.0009691066666666671,-160.51098035714284,-18.870763642857142,-1.2040873571428572
2024-06-06 12:12:04.761,44.956,0.0,3.79,52.334761,4.861958,0.0,0.27936249999999996,3.0520449999999997,9.469596,2.71875,-20.362501,-35.625,0.022397199999999992,-0.006817799999999999,-0.0010916000000000007,-160.50377057142856,-18.86300742857143,-1.2471635714285714
2024-06-06 12:12:04.765,44.956,0.0,3.79,52.334761,4.861958,0.0,0.286541,3.034697,9.562318,2.73,-20.3512512,-35.6512504,0.021125986666666666,-0.007313146666666666,-0.0012140933333333343,-160.49656078571428,-18.855251214285712,-1.2902397857142858
2024-06-06 12:12:04.781,44.956,0.0,3.79,52.334761,4.861958,0.0,0.3355935,3.0819555000000003,9.549157000000001,2.74125,-20.340001400000002,-35.677500800000004,0.019854773333333325,-0.007808493333333333,-0.001336586666666668,-160.489351,-18.847495,-1.333316
2024-06-06 12:12:04.785,44.956,0.0,3.79,52.334761,4.861958,0.0,0.384646,3.129214,9.535996,2.7525,-20.3287516,-35.7037512,0.018583559999999985,-0.00830384,-0.0014590800000000006,-160.48140066666667,-18.828131199999998,-1.3254592
2024-06-06 12:12:04.805,44.956,0.0,3.79,52.334761,4.861958,0.0,0.498305,3.047858,9.445069,2.76375,-20.317501800000002,-35.7300016,0.01731234666666666,-0.008799186666666667,-0.0015815733333333342,-160.47345033333332,-18.808767399999997,-1.3176024
2024-06-06 12:12:04.821,44.956,0.0,3.79,52.334761,4.861958,0.0,0.387039,2.963511,9.5306125,2.775,-20.306252,-35.756252,0.016041133333333332,-0.009294533333333334,-0.001704066666666667,-160.4655,-18.7894036,-1.3097456
2024-06-06 12:12:04.825,44.956,0.0,3.79,52.334761,4.861958,0.0,0.275773,2.879164,9.616156,2.7609375,-20.2781265,-35.803127,0.014769919999999992,-0.00978988,-0.0018265600000000014,-160.45754966666667,-18.7700398,-1.3018888
2024-06-06 12:12:04.845,44.956,0.0,3.79,52.334761,4.861958,0.0,0.263809,3.07059,9.398409,2.746875,-20.250001,-35.850002,0.013498706666666652,-0.010285226666666668,-0.001949053333333334,-160.44959933333334,-18.750676,-1.294032
2024-06-06 12:12:04.865,44.956,0.0,3.79,52.334761,4.861958,0.0,0.466002,2.936592,9.203992,2.7328125,-20.221875500000003,-35.896877,0.012227493333333325,-0.010780573333333335,-0.002071546666666667,-160.44164899999998,-18.731312199999998,-1.2861752
2024-06-06 12:12:04.881,44.956,0.0,3.79,52.334761,4.861958,0.0,0.334098,2.9012975,9.2458665,2.71875,-20.19375,-35.943752,0.010956279999999999,-0.011275920000000002,-0.0021940400000000013,-160.43369866666666,-18.711948399999997,-1.2783184
2024-06-06 12:12:04.885,44.956,0.0,3.79,52.334761,4.861958,0.0,0.202194,2.866003,9.287741,2.690625,-20.21250025,-35.995314500000006,0.009685066666666658,-0.011771266666666669,-0.002316533333333334,-160.42574833333333,-18.6925846,-1.2704616
2024-06-06 12:12:04.905,44.956,0.0,3.79,52.334761,4.861958,0.0,0.010768,3.141178,9.470194,2.6625,-20.2312505,-36.046877,0.008413853333333318,-0.012266613333333336,-0.0024390266666666684,-160.417798,-18.6732208,-1.2626048
2024-06-06 12:12:04.925,44.956,0.0,3.79,52.334761,4.861958,0.0,0.151944,3.200999,9.500104,2.6343750000000004,-20.25000075,-36.0984395,0.007142639999999992,-0.012761960000000003,-0.002561520000000001,-160.40984766666665,-18.653857,-1.254748
2024-06-06 12:12:04.941,44.956,0.0,3.79,52.334761,4.861958,0.0,0.1734795,3.1908295,9.538987,2.60625,-20.268751,-36.150002,0.005871426666666665,-0.01325730666666667,-0.002684013333333334,-160.40189733333332,-18.634493199999998,-1.2468912
2024-06-06 12:12:04.945,44.956,0.0,3.79,52.334761,4.861958,0.0,0.195015,3.18066,9.57787,2.611607142857143,-20.284822285714288,-36.19018057142857,0.004600213333333325,-0.013752653333333337,-0.0028065066666666683,-160.393947,-18.615129399999997,-1.2390344
2024-06-06 12:12:04.951,44.956,0.0,3.79,52.334761,4.861958,0.0,0.172283,3.193222,9.5665045,2.616964285714286,-20.300893571428574,-36.23035914285715,0.003329,-0.014248,-0.002929,-160.38599666666667,-18.5957656,-1.2311776
2024-06-06 12:12:04.965,44.956,0.0,3.79,52.334761,4.861958,0.0,0.149551,3.205784,9.555139,2.6223214285714285,-20.31696485714286,-36.270537714285716,0.00339292,-0.014425546666666667,-0.00315804,-160.37804633333332,-18.5764018,-1.2233208
2024-06-06 12:12:04.981,44.956,0.0,3.79,52.334761,4.861958,0.0,0.2198405,3.179463,9.436096,2.6276785714285715,-20.333036142857143,-36.310716285714285,0.00345684,-0.014603093333333334,-0.00338708,-160.370096,-18.557038,-1.215464
2024-06-06 12:12:04.985,44.956,0.0,3.79,52.334761,4.861958,0.0,0.29013,3.153142,9.317053,2.633035714285714,-20.34910742857143,-36.350894857142855,0.00352076,-0.014780640000000001,-0.00361612,-160.38006637499998,-18.5321793125,-1.2174451875
2024-06-06 12:12:05.000,44.993,0.0,3.79,52.334762,4.861962,0.0,0.308076,3.1463623333333333,9.284949333333333,2.638392857142857,-20.365178714285715,-36.39107342857143,0.00358468,-0.014958186666666666,-0.0038451600000000002,-160.39003674999998,-18.507320625,-1.219426375
2024-06-06 12:12:05.001,44.993,0.0,3.79,52.334762,4.861962,0.0,0.326022,3.1395826666666666,9.252845666666666,2.64375,-20.38125,-36.431252,0.0036486,-0.015135733333333333,-0.0040742,-160.400007125,-18.4824619375,-1.2214075625
2024-06-06 12:12:05.005,44.993,0.0,3.79,52.334762,4.861962,0.0,0.343968,3.132803,9.220742,2.6015625,-20.37656275,-36.482814250000004,0.00371252,-0.01531328,-0.00430324,-160.4099775,-18.45760325,-1.22338875
2024-06-06 12:12:05.025,44.993,0.0,3.79,52.334762,4.861962,0.0,0.238684,3.204588,9.177671,2.559375,-20.3718755,-36.5343765,0.00377644,-0.015490826666666667,-0.00453228,-160.419947875,-18.432744562499998,-1.2253699375
2024-06-06 12:12:05.045,44.993,0.0,3.79,52.334762,4.861962,0.0,0.247059,3.215355,9.23151,2.5171875,-20.36718825,-36.58593875,0.00384036,-0.015668373333333332,-0.00476132,-160.42991825,-18.407885874999998,-1.227351125
2024-06-06 12:12:05.061,44.993,0.0,3.79,52.334762,4.861962,0.0,0.189332,3.194418,9.3239325,2.475,-20.362501,-36.637501,0.00390428,-0.01584592,-0.00499036,-160.43988862499998,-18.383027187499998,-1.2293323125
2024-06-06 12:12:05.065,44.993,0.0,3.79,52.334762,4.861962,0.0,0.131605,3.173481,9.416355,2.475,-20.362501,-36.689063250000004,0.0039682,-0.016023466666666666,-0.0052194,-160.449859,-18.358168499999998,-1.2313135000000002
2024-06-06 12:12:05.085,44.993,0.0,3.79,52.334762,4.861962,0.0,0.107677,3.202195,9.472587,2.475,-20.362501,-36.7406255,0.00403212,-0.016201013333333333,-0.005448440000000001,-160.459829375,-18.3333098125,-1.2332946875000002
2024-06-06 12:12:05.105,44.993,0.0,3.79,52.334762,4.861962,0.0,0.058624,3.181856,9.405587,2.475,-20.362501,-36.79218775,0.00409604,-0.01637856,-0.00567748,-160.46979975,-18.308451125,-1.2352758750000001
2024-06-06 12:12:05.121,44.993,0.0,3.79,52.334762,4.861962,0.0,0.0281155,3.2350965,9.449855,2.475,-20.362501,-36.84375,0.00415996,-0.016556106666666667,-0.00590652,-160.479770125,-18.2835924375,-1.2372570625000001
2024-06-06 12:12:05.125,44.993,0.0,3.79,52.334762,4.861962,0.0,-0.002393,3.288337,9.494123,2.4984375,-20.33437575,-36.890625,0.00422388,-0.016733653333333334,-0.00613556,-160.48974049999998,-18.25873375,-1.23923825
2024-06-06 12:12:05.145,44.993,0.0,3.79,52.334762,4.861962,0.0,0.06341,3.343371,9.415159,2.521875,-20.3062505,-36.9375,0.0042878,-0.0169112,-0.0063646,-160.49971087499998,-18.2338750625,-1.2412194375
2024-06-06 12:12:05.165,44.993,0.0,3.79,52.334762,4.861962,0.0,0.122034,3.368496,9.358928,2.5453125,-20.278125250000002,-36.984375,0.00435172,-0.017088746666666668,-0.00659364,-160.50968125,-18.209016375,-1.243200625
2024-06-06 12:12:05.181,44.993,0.0,3.79,52.334762,4.861962,0.0,0.10329033333333333,3.3760733333333333,9.341779333333333,2.56875,-20.25,-37.03125,0.00441564,-0.017266293333333335,-0.006822679999999999,-160.519651625,-18.1841576875,-1.2451818125
2024-06-06 12:12:05.181,44.993,0.0,3.79,52.334762,4.861962,0.0,0.08454666666666666,3.3836506666666666,9.324630666666668,2.5425,-20.2425004,-37.0462502,0.00447956,-0.017443840000000002,-0.00705172,-160.529622,-18.159299,-1.247163
2024-06-06 12:12:05.185,44.993,0.0,3.79,52.334762,4.861962,0.0,0.065803,3.391228,9.307482,2.51625,-20.2350008,-37.0612504,0.00454348,-0.01762138666666667,-0.00728076,-160.5490382857143,-18.223949357142857,-1.2129783571428572
2024-06-06 12:12:05.205,44.993,0.0,3.79,52.334762,4.861962,0.0,0.125623,3.319443,9.460623,2.49,-20.2275012,-37.0762506,0.004607399999999999,-0.017798933333333336,-0.0075098,-160.56845457142856,-18.288599714285716,-1.1787937142857143
2024-06-06 12:12:05.225,44.993,0.0,3.79,52.334762,4.861962,0.0,0.38345,2.976073,9.533604,2.46375,-20.2200016,-37.0912508,0.00467132,-0.01797648,-0.00773884,-160.58787085714283,-18.353250071428572,-1.1446090714285715
2024-06-06 12:12:05.241,44.993,0.0,3.79,52.334762,4.861962,0.0,0.34576300000000004,3.0203405,9.3897355,2.4375,-20.212502,-37.106251,0.00473524,-0.018154026666666667,-0.00796788,-160.60728714285713,-18.41790042857143,-1.1104244285714286
2024-06-06 12:12:05.245,44.993,0.0,3.79,52.334762,4.861962,0.0,0.308076,3.064608,9.245867,2.4328125,-20.2312515,-37.153126,0.00479916,-0.018331573333333333,-0.00819692,-160.62670342857143,-18.482550785714285,-1.0762397857142858
2024-06-06 12:12:05.265,44.993,0.0,3.79,52.334762,4.861962,0.0,-0.399601,3.413362,9.312267,2.428125,-20.250001,-37.200001,0.00486308,-0.01850912,-0.00842596,-160.6461197142857,-18.547201142857144,-1.042055142857143
2024-06-06 12:12:05.285,44.993,0.0,3.79,52.334762,4.861962,0.0,0.148355,3.414558,8.878569,2.4234375000000004,-20.268750500000003,-37.246876,0.004927,-0.018686666666666667,-0.008655,-160.66553599999997,-18.6118515,-1.0078705000000001
2024-06-06 12:12:05.301,44.993,0.0,3.79,52.334762,4.861962,0.0,-0.014357000000000009,3.3843484999999998,9.102597,2.41875,-20.2875,-37.293751,0.004990919999999999,-0.018864213333333334,-0.00888404,-160.68495228571427,-18.676501857142856,-0.9736858571428572
2024-06-06 12:12:05.305,44.993,0.0,3.79,52.334762,4.861962,0.0,-0.177069,3.354139,9.326625,2.4328125000000003,-20.3109375,-37.3171885,0.00505484,-0.01904176,-0.009113079999999999,-160.70436857142857,-18.741152214285716,-0.9395012142857143
2024-06-06 12:12:05.325,44.993,0.0,3.79,52.334762,4.861962,0.0,-0.581456,3.486343,9.904491,2.4468750000000004,-20.334375,-37.340626,0.00511876,-0.01921930666666667,-0.009342119999999999,-160.72378485714285,-18.805802571428572,-0.9053165714285715
2024-06-06 12:12:05.345,44.993,0.0,3.79,52.334762,4.861962,0.0,-0.101695,3.238087,9.48455,2.4609375,-20.3578125,-37.3640635,0.00518268,-0.019396853333333335,-0.009571159999999999,-160.74320114285712,-18.870452928571428,-0.8711319285714285
2024-06-06 12:12:05.361,44.993,0.0,3.79,52.334762,4.861962,0.0,0.13130599999999998,2.9886355,9.2437725,2.475,-20.38125,-37.387501,0.0052466,-0.019574400000000002,-0.0098002,-160.76261742857142,-18.935103285714284,-0.8369472857142857
2024-06-06 12:12:05.365,44.993,0.0,3.79,52.334762,4.861962,0.0,0.364307,2.739184,9.002995,2.49,-20.4225004,-37.387501,0.00531052,-0.019751946666666666,-0.01002924,-160.78203371428572,-18.999753642857144,-0.8027626428571428
2024-06-06 12:12:05.380,44.993,0.0,3.79,52.334762,4.861962,0.0,0.33559300000000003,2.6967109999999996,9.120841500000001,2.505,-20.4637508,-37.387501,0.005374439999999999,-0.019929493333333333,-0.01025828,-160.80145,-19.064404,-0.768578
2024-06-06 12:12:05.385,44.993,0.0,3.79,52.334762,4.861962,0.0,0.306879,2.654238,9.238688,2.52,-20.505001200000002,-37.387501,0.00543836,-0.02010704,-0.01048732,-160.75588092857143,-19.050383285714286,-0.6578792857142857
2024-06-06 12:12:05.405,44.993,0.0,3.79,52.334762,4.861962,0.0,-0.074178,2.777469,10.025329,2.5349999999999997,-20.5462516,-37.387501,0.00550228,-0.020284586666666667,-0.01071636,-160.71031185714284,-19.036362571428572,-0.5471805714285713
2024-06-06 12:12:05.421,44.993,0.0,3.79,52.334762,4.861962,0.0,-0.13639099999999998,2.919842,10.051051999999999,2.55,-20.587502,-37.387501,0.0055662,-0.020462133333333334,-0.010945400000000001,-160.66474278571428,-19.022341857142855,-0.43648185714285714
2024-06-06 12:12:05.425,44.993,0.0,3.79,52.334762,4.861962,0.0,-0.198604,3.062215,10.076775,2.5593749999999997,-20.587502,-37.38281375,0.00563012,-0.02063968,-0.01117444,-160.61917371428572,-19.00832114285714,-0.3257831428571428
2024-06-06 12:12:05.445,44.993,0.0,3.79,52.334762,4.861962,0.0,-0.125623,3.095714,9.747761,2.5687499999999996,-20.587502,-37.3781265,0.00569404,-0.020817226666666667,-0.01140348,-160.57360464285713,-18.994300428571428,-0.2150844285714285
2024-06-06 12:12:05.465,44.993,0.0,3.79,52.334762,4.861962,0.0,0.014357,3.272783,9.506086,2.578125,-20.587502,-37.373439250000004,0.0057579599999999995,-0.020994773333333334,-0.01163252,-160.52803557142857,-18.980279714285714,-0.1043857142857143
2024-06-06 12:12:05.481,44.993,0.0,3.79,52.334762,4.861962,0.0,0.20608200000000002,3.3349965,9.103793,2.5875,-20.587502,-37.368752,0.00582188,-0.02117232,-0.01186156,-160.4824665,-18.966259,0.006313000000000013
2024-06-06 12:12:05.485,44.993,0.0,3.79,52.334762,4.861962,0.0,0.397807,3.39721,8.7015,2.6015625,-20.5968765,-37.33593975,0.0058858,-0.02134986666666667,-0.0120906,-160.43689742857143,-18.952238285714284,0.11701171428571433
2024-06-06 12:12:05.505,44.993,0.0,3.79,52.334762,4.861962,0.0,0.71007,3.247658,8.660822,2.6156249999999996,-20.606251,-37.3031275,0.00594972,-0.021527413333333335,-0.01231964,-160.39132835714287,-18.93821757142857,0.22771042857142865
2024-06-06 12:12:05.525,44.993,0.0,3.79,52.334762,4.861962,0.0,0.656232,3.269194,9.089137,2.6296874999999997,-20.6156255,-37.270315249999996,0.00601364,-0.021704960000000002,-0.01254868,-160.34575928571428,-18.924196857142856,0.33840914285714296
2024-06-06 12:12:05.541,44.993,0.0,3.79,52.334762,4.861962,0.0,0.578465,3.2853455,9.2443715,2.64375,-20.625,-37.237503,0.006077559999999999,-0.02188250666666667,-0.01277772,-160.30019021428572,-18.910176142857143,0.4491078571428573
2024-06-06 12:12:05.545,44.993,0.0,3.79,52.334762,4.861962,0.0,0.500698,3.301497,9.399606,2.68125,-20.6325,-37.1400024,0.0061414799999999995,-0.022060053333333336,-0.01300676,-160.25462114285716,-18.896155428571426,0.5598065714285714
2024-06-06 12:12:05.565,44.993,0.0,3.79,52.334762,4.861962,0.0,0.382253,3.171088,9.602996,2.71875,-20.64,-37.0425018,0.0062054,-0.022237600000000003,-0.013235799999999999,-160.20905207142857,-18.882134714285712,0.6705052857142857
2024-06-06 12:12:05.580,44.993,0.0,3.79,52.334762,4.861962,0.0,0.36909250000000005,3.0969105,9.7076815,2.7562499999999996,-20.6475,-36.9450012,0.00626932,-0.02241514666666667,-0.013464839999999999,-160.163483,-18.868114,0.781204
2024-06-06 12:12:05.585,44.993,0.0,3.79,52.334762,4.861962,0.0,0.355932,3.022733,9.812367,2.7937499999999997,-20.655,-36.8475006,0.00633324,-0.022592693333333337,-0.013693879999999999,-160.11349285714286,-18.894443499999998,0.5675749285714285
2024-06-06 12:12:05.601,44.993,0.0,3.79,52.334762,4.861962,0.0,0.36909250000000005,3.007778,9.8859465,2.83125,-20.6625,-36.75,0.00639716,-0.02277024,-0.013922919999999998,-160.06350271428573,-18.920772999999997,0.35394585714285715
2024-06-06 12:12:05.605,44.993,0.0,3.79,52.334762,4.861962,0.0,0.382253,2.992823,9.959526,2.86875,-20.629687500000003,-36.59062575,0.006461079999999999,-0.022947786666666668,-0.014151959999999998,-160.01351257142858,-18.9471025,0.14031678571428574
2024-06-06 12:12:05.625,44.993,0.0,3.79,52.334762,4.861962,0.0,0.477966,2.919842,9.591031,2.90625,-20.596875,-36.4312515,0.0065249999999999996,-0.023125333333333335,-0.014380999999999998,-159.96352242857142,-18.973432,-0.07331228571428572
2024-06-06 12:12:05.645,44.993,0.0,3.79,52.334762,4.861962,0.0,0.432503,3.133999,9.254242,2.94375,-20.5640625,-36.271877249999996,0.00658892,-0.02330288,-0.014610040000000001,-159.9135322857143,-18.999761499999998,-0.2869413571428572
2024-06-06 12:12:05.661,44.993,0.0,3.79,52.334762,4.861962,0.0,0.3792625,3.2183460000000004,9.209975,2.98125,-20.53125,-36.112503,0.00665284,-0.02348042666666667,-0.014839080000000001,-159.86354214285714,-19.026090999999997,-0.5005704285714285
2024-06-06 12:12:05.665,44.993,0.0,3.79,52.334762,4.861962,0.0,0.326022,3.302693,9.165708,3.09375,-20.4609375,-35.873439749999996,0.0067167600000000004,-0.023657973333333335,-0.01506812,-159.81355200000002,-19.052420499999997,-0.7141995000000001
2024-06-06 12:12:05.685,44.993,0.0,3.79,52.334762,4.861962,0.0,0.426521,3.284747,9.006584,3.20625,-20.390625,-35.6343765,0.00678068,-0.023835520000000002,-0.01529716,-159.76356185714286,-19.07875,-0.9278285714285714
2024-06-06 12:12:05.705,44.993,0.0,3.79,52.334762,4.861962,0.0,0.555733,3.296711,8.99462,3.31875,-20.3203125,-35.39531325,0.006844599999999999,-0.024013066666666666,-0.0155262,-159.7135717142857,-19.1050795,-1.1414576428571428
2024-06-06 12:12:05.721,44.993,0.0,3.79,52.334762,4.861962,0.0,0.6532405,3.2799614999999998,9.0257265,3.43125,-20.25,-35.15625,0.00690852,-0.024190613333333333,-0.01575524,-159.66358157142858,-19.131408999999998,-1.3550867142857144
2024-06-06 12:12:05.725,44.993,0.0,3.79,52.334762,4.861962,0.0,0.750748,3.263212,9.056833,3.48,-20.1975002,-35.0475006,0.00697244,-0.02436816,-0.01598428,-159.61359142857143,-19.157738499999997,-1.568715785714286
2024-06-06 12:12:05.745,44.993,0.0,3.79,52.334762,4.861962,0.0,0.664607,3.234498,9.443872,3.52875,-20.1450004,-34.9387512,0.00703636,-0.024545706666666667,-0.01621332,-159.56360128571427,-19.184068,-1.782344857142857
2024-06-06 12:12:05.765,44.993,0.0,3.79,52.334762,4.861962,0.0,0.388235,3.413362,9.468997,3.5774999999999997,-20.0925006,-34.8300018,0.00710028,-0.024723253333333334,-0.01644236,-159.51361114285714,-19.2103975,-1.9959739285714286
2024-06-06 12:12:05.779,44.993,0.0,3.79,52.334762,4.861962,0.0,0.339581,3.3716869999999997,9.481758666666666,3.6262499999999998,-20.0400008,-34.7212524,0.0071642,-0.0249008,-0.0166714,-159.463621,-19.236727,-2.209603
2024-06-06 12:12:05.781,44.993,0.0,3.79,52.334762,4.861962,0.0,0.290927,3.330012,9.494520333333334,3.675,-19.987501,-34.612503,0.007228119999999999,-0.025078346666666668,-0.01690044,-159.4509185,-19.246527375,-2.2515561875
2024-06-06 12:12:05.785,44.993,0.0,3.79,52.334762,4.861962,0.0,0.242273,3.288337,9.507282,3.6515625,-19.98281325,-34.457815249999996,0.00729204,-0.025255893333333335,-0.01712948,-159.43821599999998,-19.256327749999997,-2.293509375
2024-06-06 12:12:05.805,44.993,0.0,3.79,52.334762,4.861962,0.0,0.321236,3.245266,9.42473,3.628125,-19.9781255,-34.3031275,0.00735596,-0.02543344,-0.01735852,-159.4255135,-19.266128124999998,-2.3354625625
2024-06-06 12:12:05.825,44.993,0.0,3.79,52.334762,4.861962,0.0,0.38345,3.366103,9.213564,3.6046875,-19.973437750000002,-34.14843975,0.00741988,-0.02561098666666667,-0.01758756,-159.41281099999998,-19.2759285,-2.37741575
2024-06-06 12:12:05.841,44.993,0.0,3.79,52.334762,4.861962,0.0,0.3942175,3.366103,9.240483000000001,3.58125,-19.96875,-33.993752,0.0074838000000000005,-0.025788533333333336,-0.0178166,-159.4001085,-19.285728875,-2.4193689375
2024-06-06 12:12:05.845,44.993,0.0,3.79,52.334762,4.861962,0.0,0.404985,3.366103,9.267402,3.5625,-19.889063,-33.885939,0.007547719999999999,-0.025966080000000002,-0.018045639999999998,-159.387406,-19.29552925,-2.4613221249999997
2024-06-06 12:12:05.865,44.993,0.0,3.79,52.334762,4.861962,0.0,0.34995,3.31705,9.290133,3.54375,-19.809376,-33.778126,0.007611639999999999,-0.02614362666666667,-0.018274679999999998,-159.37470349999998,-19.305329625,-2.5032753125
2024-06-06 12:12:05.885,44.993,0.0,3.79,52.334762,4.861962,0.0,0.272184,3.30389,9.417552,3.525,-19.729689,-33.670313,0.00767556,-0.026321173333333336,-0.018503719999999998,-159.362001,-19.31513,-2.5452285
2024-06-06 12:12:05.901,44.993,0.0,3.79,52.334762,4.861962,0.0,0.3349955,3.135196,9.0996055,3.50625,-19.650002,-33.5625,0.00773948,-0.026498720000000003,-0.01873276,-159.3492985,-19.324930375,-2.5871816874999998
2024-06-06 12:12:05.905,44.993,0.0,3.79,52.334762,4.861962,0.0,0.397807,2.966502,8.781659,3.459375,-19.6734395,-33.45000075,0.0078034,-0.02667626666666667,-0.0189618,-159.336596,-19.33473075,-2.629134875
2024-06-06 12:12:05.925,44.993,0.0,3.79,52.334762,4.861962,0.0,0.21655,3.101696,9.598209,3.4125,-19.696877,-33.3375015,0.00786732,-0.026853813333333337,-0.01919084,-159.3238935,-19.344531125,-2.6710880625
2024-06-06 12:12:05.945,44.993,0.0,3.79,52.334762,4.861962,0.0,0.118445,3.994817,9.317053,3.365625,-19.7203145,-33.225002249999996,0.007931239999999999,-0.027031360000000004,-0.01941988,-159.311191,-19.3543315,-2.71304125
2024-06-06 12:12:05.961,44.993,0.0,3.79,52.334762,4.861962,0.0,0.493819,3.6236305,9.466006499999999,3.31875,-19.743752,-33.112503,0.00799516,-0.02720890666666667,-0.01964892,-159.2984885,-19.364131875,-2.7549944374999997
2024-06-06 12:12:05.965,44.993,0.0,3.79,52.334762,4.861962,0.0,0.869193,3.252444,9.61496,3.313392857142857,-19.762501714285715,-33.08035985714285,0.00805908,-0.027386453333333335,-0.01987796,-159.285786,-19.373932250000003,-2.7969476249999996
2024-06-06 12:12:05.965,44.993,0.0,3.79,52.334762,4.861962,0.0,0.838884,3.134398,9.707083666666666,3.3080357142857144,-19.78125142857143,-33.048216714285715,0.008123,-0.027564,-0.020107,-159.27308349999998,-19.383732625,-2.8389008125
2024-06-06 12:12:05.979,44.993,0.0,3.79,52.334762,4.861962,0.0,0.808575,3.016352,9.799207333333333,3.3026785714285714,-19.800001142857145,-33.01607357142857,0.008322729729729729,-0.027515405405405407,-0.02008181081081081,-159.260381,-19.393533,-2.880854
2024-06-06 12:12:05.985,44.993,0.0,3.79,52.334762,4.861962,0.0,0.778266,2.898306,9.891331,3.2973214285714287,-19.818750857142856,-32.983930428571426,0.00852245945945946,-0.027466810810810812,-0.020056621621621622,-159.25853326666666,-19.409451933333333,-2.8475851999999997
2024-06-06 12:12:06.000,43.875,0.0,3.79,52.334767,4.861971,0.0,0.700499,3.270091,9.622736499999998,3.2919642857142857,-19.83750057142857,-32.95178728571428,0.008722189189189189,-0.027418216216216217,-0.020031432432432432,-159.25668553333333,-19.42537086666667,-2.8143164
2024-06-06 12:12:06.005,43.875,0.0,3.79,52.334767,4.861971,0.0,0.622732,3.641876,9.354142,3.286607142857143,-19.856250285714285,-32.919644142857145,0.00892191891891892,-0.027369621621621622,-0.02000624324324324,-159.2548378,-19.4412898,-2.7810476
2024-06-06 12:12:06.021,43.875,0.0,3.79,52.334767,4.861971,0.0,0.7728815,3.845266,9.1109715,3.28125,-19.875,-32.887501,0.009121648648648648,-0.027321027027027028,-0.019981054054054054,-159.25299006666665,-19.457208733333335,-2.7477788
2024-06-06 12:12:06.025,43.875,0.0,3.79,52.334767,4.861971,0.0,0.923031,4.048656,8.867801,3.234375,-19.8515625,-32.83125125,0.009321378378378379,-0.027272432432432433,-0.019955864864864864,-159.25114233333332,-19.473127666666667,-2.7145099999999998
2024-06-06 12:12:06.045,43.875,0.0,3.79,52.334767,4.861971,0.0,1.120439,3.628716,8.983852,3.1875,-19.828125,-32.7750015,0.009521108108108108,-0.027223837837837838,-0.019930675675675677,-159.24929459999998,-19.4890466,-2.6812412
2024-06-06 12:12:06.065,43.875,0.0,3.79,52.334767,4.861971,0.0,0.9003,3.366103,9.000603,3.140625,-19.8046875,-32.71875175,0.009720837837837839,-0.027175243243243243,-0.019905486486486487,-159.24744686666665,-19.504965533333333,-2.6479724
2024-06-06 12:12:06.081,43.875,0.0,3.79,52.334767,4.861971,0.0,0.8446665,3.3152555,9.1250295,3.09375,-19.78125,-32.662502,0.009920567567567568,-0.027126648648648652,-0.019880297297297296,-159.24559913333334,-19.52088446666667,-2.6147036
2024-06-06 12:12:06.085,43.875,0.0,3.79,52.334767,4.861971,0.0,0.789033,3.264408,9.249456,3.0328125,-19.82343775,-32.65781475,0.010120297297297298,-0.027078054054054057,-0.01985510810810811,-159.2437514,-19.5368034,-2.5814348
2024-06-06 12:12:06.105,43.875,0.0,3.79,52.334767,4.861971,0.0,0.626321,3.173481,9.369696,2.971875,-19.8656255,-32.6531275,0.010320027027027027,-0.027029459459459462,-0.01982991891891892,-159.24190366666667,-19.552722333333335,-2.548166
2024-06-06 12:12:06.125,43.875,0.0,3.79,52.334767,4.861971,0.0,0.619143,3.145964,9.114262,2.9109375,-19.90781325,-32.64844025,0.010519756756756756,-0.026980864864864867,-0.019804729729729728,-159.24005593333334,-19.568641266666667,-2.5148972
2024-06-06 12:12:06.141,43.875,0.0,3.79,52.334767,4.861971,0.0,0.649053,3.169294,9.1184495,2.85,-19.950001,-32.643753,0.010719486486486487,-0.026932270270270273,-0.01977954054054054,-159.2382082,-19.584560200000002,-2.4816284
2024-06-06 12:12:06.145,43.875,0.0,3.79,52.334767,4.861971,0.0,0.678963,3.192624,9.122637,2.77875,-20.0287508,-32.6737526,0.010919216216216216,-0.026883675675675678,-0.01975435135135135,-159.23636046666667,-19.600479133333334,-2.4483596
2024-06-06 12:12:06.165,43.875,0.0,3.79,52.334767,4.861971,0.0,0.582054,3.242873,9.477372,2.7075,-20.1075006,-32.7037522,0.011118945945945946,-0.026835081081081083,-0.01972916216216216,-159.23451273333333,-19.61639806666667,-2.4150908
2024-06-06 12:12:06.178,43.875,0.0,3.79,52.334767,4.861971,0.0,0.5742775,3.2985059999999997,9.4821575,2.63625,-20.1862504,-32.7337518,0.011318675675675675,-0.026786486486486488,-0.019703972972972973,-159.232665,-19.632317,-2.381822
2024-06-06 12:12:06.185,43.875,0.0,3.79,52.334767,4.861971,0.0,0.566501,3.354139,9.486943,2.565,-20.2650002,-32.7637514,0.011518405405405406,-0.026737891891891893,-0.019678783783783783,-159.16309464285715,-19.628957285714286,-2.5039205
2024-06-06 12:12:06.201,43.875,0.0,3.79,52.334767,4.861971,0.0,0.5647065,3.4028929999999997,9.4785685,2.49375,-20.34375,-32.793751,0.011718135135135135,-0.0266892972972973,-0.019653594594594596,-159.0935242857143,-19.62559757142857,-2.626019
2024-06-06 12:12:06.205,43.875,0.0,3.79,52.334767,4.861971,0.0,0.562912,3.451647,9.470194,2.4,-20.4234375,-32.840626,0.011917864864864864,-0.026640702702702704,-0.019628405405405405,-159.02395392857142,-19.622237857142856,-2.7481175
2024-06-06 12:12:06.225,43.875,0.0,3.79,52.334767,4.861971,0.0,0.515055,3.455236,9.490533,2.30625,-20.503125,-32.887501,0.012117594594594595,-0.02659210810810811,-0.019603216216216215,-158.95438357142856,-19.61887814285714,-2.870216
2024-06-06 12:12:06.245,43.875,0.0,3.79,52.334767,4.861971,0.0,0.495912,3.39721,9.459426,2.2125,-20.582812500000003,-32.934376,0.012317324324324325,-0.026543513513513514,-0.019578027027027028,-158.8848132142857,-19.615518428571427,-2.9923145
2024-06-06 12:12:06.261,43.875,0.0,3.79,52.334767,4.861971,0.0,0.515653,3.354139,9.4510515,2.11875,-20.6625,-32.981251,0.012517054054054054,-0.02649491891891892,-0.019552837837837837,-158.81524285714286,-19.612158714285712,-3.114413
2024-06-06 12:12:06.265,43.875,0.0,3.79,52.334767,4.861971,0.0,0.535394,3.311068,9.442677,2.1,-20.676562500000003,-33.014064,0.012716783783783783,-0.026446324324324325,-0.019527648648648647,-158.7456725,-19.608798999999998,-3.2365114999999998
2024-06-06 12:12:06.285,43.875,0.0,3.79,52.334767,4.861971,0.0,0.495912,3.230909,9.479765,2.08125,-20.690625,-33.046876999999995,0.012916513513513514,-0.02639772972972973,-0.01950245945945946,-158.67610214285713,-19.605439285714287,-3.35861
2024-06-06 12:12:06.305,43.875,0.0,3.79,52.334767,4.861971,0.0,0.577268,3.27398,9.323035,2.0625,-20.7046875,-33.07969,0.013116243243243245,-0.026349135135135135,-0.01947727027027027,-158.60653178571428,-19.602079571428572,-3.4807085
2024-06-06 12:12:06.321,43.875,0.0,3.79,52.334767,4.861971,0.0,0.619741,3.3385860000000003,9.291629,2.04375,-20.71875,-33.112503,0.013315972972972974,-0.02630054054054054,-0.019452081081081082,-158.53696142857143,-19.598719857142857,-3.602807
2024-06-06 12:12:06.325,43.875,0.0,3.79,52.334767,4.861971,0.0,0.662214,3.403192,9.260223,1.9912500000000002,-20.75625,-33.1425026,0.013515702702702703,-0.026251945945945945,-0.019426891891891892,-158.46739107142858,-19.595360142857142,-3.7249055
2024-06-06 12:12:06.345,43.875,0.0,3.79,52.334767,4.861971,0.0,0.582054,3.348157,8.939586,1.9387500000000002,-20.79375,-33.1725022,0.013715432432432433,-0.02620335135135135,-0.0194017027027027,-158.3978207142857,-19.592000428571428,-3.847004
2024-06-06 12:12:06.365,43.875,0.0,3.79,52.334767,4.861971,0.0,0.577268,3.699304,9.123833,1.88625,-20.83125,-33.2025018,0.013915162162162162,-0.02615475675675676,-0.019376513513513514,-158.32825035714285,-19.588640714285713,-3.9691025
2024-06-06 12:12:06.378,43.875,0.0,3.79,52.334767,4.861971,0.0,0.6737786666666666,3.6251263333333332,9.069196999999999,1.83375,-20.86875,-33.2325014,0.014114891891891891,-0.026106162162162164,-0.019351324324324324,-158.25868,-19.585281,-4.091201
2024-06-06 12:12:06.381,43.875,0.0,3.79,52.334767,4.861971,0.0,0.7702893333333334,3.5509486666666668,9.014561,1.78125,-20.90625,-33.262501,0.014314621621621622,-0.02605756756756757,-0.019326135135135133,-158.28684126666667,-19.60776733333333,-4.035080733333333
2024-06-06 12:12:06.385,43.875,0.0,3.79,52.334767,4.861971,0.0,0.8668,3.476771,8.959925,1.7578125,-20.87812525,-33.30468875,0.014514351351351353,-0.026008972972972975,-0.019300945945945946,-158.31500253333334,-19.630253666666665,-3.9789604666666665
2024-06-06 12:12:06.405,43.875,0.0,3.79,52.334767,4.861971,0.0,0.774676,3.372085,9.080762,1.734375,-20.8500005,-33.3468765,0.014714081081081081,-0.02596037837837838,-0.019275756756756756,-158.34316379999999,-19.652739999999998,-3.9228402
2024-06-06 12:12:06.425,43.875,0.0,3.79,52.334767,4.861971,0.0,0.347557,4.185047,9.194421,1.7109375,-20.82187575,-33.389064250000004,0.01491381081081081,-0.025911783783783785,-0.019250567567567566,-158.37132506666666,-19.67522633333333,-3.866719933333333
2024-06-06 12:12:06.441,43.875,0.0,3.79,52.334767,4.861971,0.0,0.483948,4.001996,8.8241315,1.6875,-20.793751,-33.431252,0.015113540540540541,-0.02586318918918919,-0.01922537837837838,-158.39948633333333,-19.697712666666664,-3.8105996666666666
2024-06-06 12:12:06.445,43.875,0.0,3.79,52.334767,4.861971,0.0,0.620339,3.818945,8.453842,1.6546875,-20.79843825,-33.4546895,0.015313270270270272,-0.025814594594594596,-0.019200189189189188,-158.4276476,-19.720198999999997,-3.7544794
2024-06-06 12:12:06.465,43.875,0.0,3.79,52.334767,4.861971,0.0,1.012762,3.757928,9.40798,1.621875,-20.8031255,-33.478127,0.015513,-0.025766,-0.019174999999999998,-158.45580886666667,-19.74268533333333,-3.698359133333333
2024-06-06 12:12:06.485,43.875,0.0,3.79,52.334767,4.861971,0.0,0.33679,3.571288,9.431909,1.5890624999999998,-20.80781275,-33.5015645,0.01571272972972973,-0.025717405405405406,-0.01914981081081081,-158.48397013333332,-19.765171666666667,-3.6422388666666667
2024-06-06 12:12:06.501,43.875,0.0,3.79,52.334767,4.861971,0.0,0.42173499999999997,3.548556,9.431909,1.55625,-20.8125,-33.525002,0.01591245945945946,-0.02566881081081081,-0.01912462162162162,-158.5121314,-19.787658,-3.5861186
2024-06-06 12:12:06.505,43.875,0.0,3.79,52.334767,4.861971,0.0,0.50668,3.525824,9.431909,1.4953124999999998,-20.8359375,-33.6609395,0.01611218918918919,-0.025620216216216216,-0.019099432432432433,-158.54029266666666,-19.810144333333334,-3.5299983333333333
2024-06-06 12:12:06.525,43.875,0.0,3.79,52.334767,4.861971,0.0,0.77348,3.498307,9.223135,1.434375,-20.859375,-33.796877,0.016311918918918922,-0.02557162162162162,-0.019074243243243243,-158.56845393333333,-19.832630666666667,-3.473878066666667
2024-06-06 12:12:06.545,43.875,0.0,3.79,52.334767,4.861971,0.0,0.68016,3.509074,9.366106,1.3734375,-20.8828125,-33.932814500000006,0.01651164864864865,-0.025523027027027027,-0.019049054054054052,-158.5966152,-19.855117,-3.4177578
2024-06-06 12:12:06.561,43.875,0.0,3.79,52.334767,4.861971,0.0,0.6005985,3.5132615,9.4654085,1.3125,-20.90625,-34.068752,0.016711378378378376,-0.025474432432432432,-0.019023864864864865,-158.62477646666665,-19.877603333333333,-3.3616375333333335
2024-06-06 12:12:06.565,43.875,0.0,3.79,52.334767,4.861971,0.0,0.521037,3.517449,9.564711,1.27125,-20.9287502,-34.110002,0.016911108108108107,-0.025425837837837837,-0.018998675675675675,-158.65293773333332,-19.900089666666666,-3.3055172666666666
2024-06-06 12:12:06.578,43.875,0.0,3.79,52.334767,4.861971,0.0,0.5479565,3.508476,9.480962000000002,1.23,-20.9512504,-34.151252,0.017110837837837838,-0.025377243243243246,-0.018973486486486484,-158.681099,-19.922576,-3.249397
2024-06-06 12:12:06.585,43.875,0.0,3.79,52.334767,4.861971,0.0,0.574876,3.499503,9.397213,1.18875,-20.973750600000002,-34.192502000000005,0.017310567567567568,-0.02532864864864865,-0.018948297297297297,-158.6778127142857,-20.020559928571426,-3.277966785714286
2024-06-06 12:12:06.605,43.875,0.0,3.79,52.334767,4.861971,0.0,0.6,3.480361,9.243474,1.1475,-20.996250800000002,-34.233752,0.0175102972972973,-0.025280054054054056,-0.018923108108108107,-158.67452642857143,-20.118543857142857,-3.3065365714285715
2024-06-06 12:12:06.621,43.875,0.0,3.79,52.334767,4.861971,0.0,0.5760719999999999,3.504887,9.2596255,1.10625,-21.018751,-34.275002,0.01771002702702703,-0.02523145945945946,-0.01889791891891892,-158.67124014285713,-20.216527785714284,-3.335106357142857
2024-06-06 12:12:06.625,43.875,0.0,3.79,52.334767,4.861971,0.0,0.552144,3.529413,9.275777,1.021875,-21.03750075,-34.3921895,0.017909756756756757,-0.025182864864864866,-0.01887272972972973,-158.66795385714283,-20.314511714285715,-3.363676142857143
2024-06-06 12:12:06.645,43.875,0.0,3.79,52.334767,4.861971,0.0,0.610768,3.499503,9.293723,0.9375,-21.0562505,-34.509377,0.018109486486486488,-0.02513427027027027,-0.01884754054054054,-158.66466757142857,-20.41249564285714,-3.3922459285714286
2024-06-06 12:12:06.665,43.875,0.0,3.79,52.334767,4.861971,0.0,0.556929,3.45404,9.262616,0.853125,-21.075000250000002,-34.6265645,0.018309216216216215,-0.025085675675675677,-0.018822351351351352,-158.66138128571427,-20.510479571428572,-3.4208157142857143
2024-06-06 12:12:06.681,43.875,0.0,3.79,52.334767,4.861971,0.0,0.5718845,3.4654055,9.266205,0.76875,-21.09375,-34.743752,0.018508945945945945,-0.025037081081081082,-0.01879716216216216,-158.658095,-20.6084635,-3.4493855
2024-06-06 12:12:06.685,43.875,0.0,3.79,52.334767,4.861971,0.0,0.58684,3.476771,9.269794,0.7359375,-21.1171875,-34.818751750000004,0.018708675675675676,-0.024988486486486487,-0.01877197297297297,-158.6548087142857,-20.706447428571426,-3.4779552857142857
2024-06-06 12:12:06.705,43.875,0.0,3.79,52.334767,4.861971,0.0,0.632303,3.456432,9.129815,0.703125,-21.140625,-34.8937515,0.018908405405405407,-0.024939891891891892,-0.018746783783783784,-158.6515224285714,-20.804431357142857,-3.5065250714285714
2024-06-06 12:12:06.725,43.875,0.0,3.79,52.334767,4.861971,0.0,0.668196,3.443272,9.215957,0.6703125,-21.1640625,-34.96875125,0.019108135135135138,-0.024891297297297298,-0.018721594594594593,-158.64823614285714,-20.902415285714284,-3.535094857142857
2024-06-06 12:12:06.741,43.875,0.0,3.79,52.334767,4.861971,0.0,0.6963115,3.4154555,9.2611215,0.6375,-21.1875,-35.043751,0.019307864864864865,-0.024842702702702703,-0.018696405405405403,-158.64494985714285,-21.000399214285714,-3.563664642857143
2024-06-06 12:12:06.745,43.875,0.0,3.79,52.334767,4.861971,0.0,0.724427,3.387639,9.306286,0.585,-21.2475002,-35.1300012,0.019507594594594595,-0.024794108108108108,-0.018671216216216216,-158.64166357142855,-21.09838314285714,-3.5922344285714285
2024-06-06 12:12:06.765,43.875,0.0,3.79,52.334767,4.861971,0.0,0.747159,3.343371,9.192028,0.5325,-21.307500400000002,-35.216251400000004,0.019707324324324323,-0.024745513513513513,-0.018646027027027025,-158.63837728571428,-21.196367071428572,-3.620804214285714
2024-06-06 12:12:06.777,43.875,0.0,3.79,52.334767,4.861971,0.0,0.7052845000000001,3.3765715,9.2243315,0.48,-21.3675006,-35.3025016,0.019907054054054053,-0.02469691891891892,-0.01862083783783784,-158.635091,-21.294351,-3.649374
2024-06-06 12:12:06.785,43.875,0.0,3.79,52.334767,4.861971,0.0,0.66341,3.409772,9.256635,0.4275,-21.4275008,-35.3887518,0.020106783783783784,-0.024648324324324324,-0.018595648648648648,-158.59942764285714,-21.230434857142857,-3.648396357142857
2024-06-06 12:12:06.801,43.875,0.0,3.79,52.334767,4.861971,0.0,0.616152,3.412165,9.262616999999999,0.375,-21.487501,-35.475002,0.020306513513513515,-0.02459972972972973,-0.018570459459459458,-158.56376428571429,-21.166518714285715,-3.647418714285714
2024-06-06 12:12:06.805,43.875,0.0,3.79,52.334767,4.861971,0.0,0.568894,3.414558,9.268599,0.346875,-21.52968825,-35.573439500000006,0.020506243243243245,-0.024551135135135134,-0.01854527027027027,-158.52810092857143,-21.10260257142857,-3.6464410714285713
2024-06-06 12:12:06.825,43.875,0.0,3.79,52.334767,4.861971,0.0,0.61675,3.32064,9.415159,0.31875,-21.5718755,-35.671877,0.020705972972972976,-0.02450254054054054,-0.01852008108108108,-158.49243757142855,-21.038686428571427,-3.6454634285714285
2024-06-06 12:12:06.845,43.875,0.0,3.79,52.334767,4.861971,0.0,0.656232,3.35055,9.280562,0.290625,-21.614062750000002,-35.7703145,0.020905702702702703,-0.024453945945945944,-0.01849489189189189,-158.4567742142857,-20.974770285714285,-3.6444857857142856
2024-06-06 12:12:06.861,43.875,0.0,3.79,52.334767,4.861971,0.0,0.6664015000000001,3.3696925,9.2685985,0.2625,-21.65625,-35.868752,0.02110543243243243,-0.02440535135135135,-0.018469702702702703,-158.42111085714285,-20.910854142857144,-3.6435081428571428
2024-06-06 12:12:06.865,43.875,0.0,3.79,52.334767,4.861971,0.0,0.676571,3.388835,9.256635,0.271875,-21.6890625,-35.9109395,0.02130516216216216,-0.024356756756756758,-0.018444513513513512,-158.3854475,-20.846938,-3.6425305
2024-06-06 12:12:06.885,43.875,0.0,3.79,52.334767,4.861971,0.0,0.655035,3.321836,9.285348,0.28125,-21.721875,-35.953127,0.021504891891891892,-0.024308162162162163,-0.018419324324324325,-158.34978414285715,-20.783021857142856,-3.641552857142857
2024-06-06 12:12:06.905,43.875,0.0,3.79,52.334767,4.861971,0.0,0.577268,3.272783,9.339785,0.290625,-21.754687500000003,-35.995314500000006,0.021704621621621623,-0.02425956756756757,-0.018394135135135135,-158.3141207857143,-20.719105714285714,-3.640575214285714
2024-06-06 12:12:06.921,43.875,0.0,3.79,52.334767,4.861971,0.0,0.555733,3.2703905,9.302397,0.3,-21.7875,-36.037502,0.021904351351351353,-0.024210972972972974,-0.018368945945945944,-158.27845742857144,-20.655189571428572,-3.6395975714285713
2024-06-06 12:12:06.925,43.875,0.0,3.79,52.334767,4.861971,0.0,0.534198,3.267998,9.265009,0.278125,-21.784375166666667,-36.056252,0.022104081081081084,-0.02416237837837838,-0.018343756756756757,-158.24279407142856,-20.59127342857143,-3.6386199285714285
2024-06-06 12:12:06.945,43.875,0.0,3.79,52.334767,4.861971,0.0,0.556929,3.171088,9.281759,0.25625,-21.781250333333336,-36.075002000000005,0.02230381081081081,-0.024113783783783784,-0.018318567567567567,-158.2071307142857,-20.527357285714285,-3.6376422857142856
2024-06-06 12:12:06.965,43.875,0.0,3.79,52.334767,4.861971,0.0,0.495912,3.122035,9.419945,0.234375,-21.7781255,-36.093752,0.022503540540540542,-0.02406518918918919,-0.018293378378378376,-158.17146735714286,-20.463441142857143,-3.6366646428571427
2024-06-06 12:12:06.976,43.875,0.0,3.79,52.334767,4.861971,0.0,0.47557325,3.13429825,9.462716499999999,0.21250000000000002,-21.775000666666667,-36.112502,0.02270327027027027,-0.024016594594594595,-0.01826818918918919,-158.135804,-20.399525,-3.635687
2024-06-06 12:12:06.979,43.875,0.0,3.79,52.334767,4.861971,0.0,0.4552345,3.1465615,9.505488,0.19062500000000002,-21.771875833333336,-36.131252,0.022903,-0.023968,-0.018243,-158.12718029411766,-20.339906764705884,-3.638364470588235
2024-06-06 12:12:06.981,43.875,0.0,3.79,52.334767,4.861971,0.0,0.43489575,3.15882475,9.5482595,0.16875,-21.768751,-36.150002,0.02351197333333333,-0.02300572,-0.01778316,-158.1185565882353,-20.280288529411767,-3.6410419411764705
2024-06-06 12:12:06.985,43.875,0.0,3.79,52.334767,4.861971,0.0,0.414557,3.171088,9.591031,0.18000000000000002,-21.768751,-36.1162518,0.024120946666666667,-0.02204344,-0.01732332,-158.10993288235295,-20.220670294117646,-3.643719411764706
2024-06-06 12:12:07.000,42.781,0.0,3.79,52.334772,4.861978,0.0,0.4660025,3.1549365,9.5605225,0.19125,-21.768751,-36.0825016,0.02472992,-0.02108116,-0.01686348,-158.1013091764706,-20.16105205882353,-3.646396882352941
2024-06-06 12:12:07.005,42.781,0.0,3.79,52.334772,4.861978,0.0,0.517448,3.138785,9.530014,0.2025,-21.768751,-36.0487514,0.025338893333333334,-0.02011888,-0.016403639999999997,-158.09268547058824,-20.101433823529412,-3.6490743529411764
2024-06-06 12:12:07.025,42.781,0.0,3.79,52.334772,4.861978,0.0,0.555733,3.222534,9.34457,0.21375,-21.768751,-36.0150012,0.025947866666666666,-0.0191566,-0.015943799999999998,-158.0840617647059,-20.041815588235295,-3.6517518235294117
2024-06-06 12:12:07.041,42.781,0.0,3.79,52.334772,4.861978,0.0,0.5820540000000001,3.2183465,9.375677,0.225,-21.768751,-35.981251,0.026556839999999998,-0.01819432,-0.015483959999999998,-158.07543805882355,-19.982197352941178,-3.654429294117647
2024-06-06 12:12:07.045,42.781,0.0,3.79,52.334772,4.861978,0.0,0.608375,3.214159,9.406784,0.271875,-21.77343825,-35.99531375,0.027165813333333334,-0.01723204,-0.015024119999999998,-158.06681435294118,-19.92257911764706,-3.6571067647058824
2024-06-06 12:12:07.065,42.781,0.0,3.79,52.334772,4.861978,0.0,0.61675,3.183052,9.36132,0.31875,-21.7781255,-36.0093765,0.027774786666666666,-0.01626976,-0.014564279999999999,-158.05819064705884,-19.86296088235294,-3.6597842352941177
2024-06-06 12:12:07.085,42.781,0.0,3.79,52.334772,4.861978,0.0,0.597607,3.183052,9.461819,0.365625,-21.78281275,-36.02343925,0.02838376,-0.01530748,-0.01410444,-158.04956694117647,-19.803342647058823,-3.662461705882353
2024-06-06 12:12:07.101,42.781,0.0,3.79,52.334772,4.861978,0.0,0.5922235,3.1758735,9.4606225,0.4125,-21.7875,-36.037502,0.028992733333333333,-0.014345199999999999,-0.0136446,-158.04094323529412,-19.743724411764706,-3.6651391764705883
2024-06-06 12:12:07.105,42.781,0.0,3.79,52.334772,4.861978,0.0,0.58684,3.168695,9.459426,0.4125,-21.768750500000003,-36.0281265,0.029601706666666665,-0.01338292,-0.013184759999999998,-158.03231952941178,-19.68410617647059,-3.6678166470588236
2024-06-06 12:12:07.125,42.781,0.0,3.79,52.334772,4.861978,0.0,0.651446,3.185445,9.323035,0.4125,-21.750001,-36.018751,0.03021068,-0.01242064,-0.012724919999999999,-158.0236958235294,-19.624487941176472,-3.670494117647059
2024-06-06 12:12:07.145,42.781,0.0,3.79,52.334772,4.861978,0.0,0.615554,3.254837,9.285348,0.4125,-21.7312515,-36.009375500000004,0.030819653333333336,-0.011458359999999999,-0.01226508,-158.01507211764707,-19.564869705882355,-3.673171588235294
2024-06-06 12:12:07.161,42.781,0.0,3.79,52.334772,4.861978,0.0,0.6089735000000001,3.237489,9.340682000000001,0.4125,-21.712502,-36.0,0.03142862666666667,-0.01049608,-0.011805239999999998,-158.00644841176472,-19.505251470588234,-3.6758490588235295
2024-06-06 12:12:07.165,42.781,0.0,3.79,52.334772,4.861978,0.0,0.602393,3.220141,9.396016,0.38625,-21.693752,-36.0037506,0.0320376,-0.009533799999999999,-0.011345399999999999,-157.99782470588235,-19.445633235294117,-3.678526529411765
2024-06-06 12:12:07.175,42.781,0.0,3.79,52.334772,4.861978,0.0,0.592822,3.2045874999999997,9.403793,0.36,-21.675002,-36.0075012,0.03264657333333333,-0.00857152,-0.010885559999999999,-157.989201,-19.386015,-3.681204
2024-06-06 12:12:07.185,42.781,0.0,3.79,52.334772,4.861978,0.0,0.583251,3.189034,9.41157,0.33375,-21.656252000000002,-36.0112518,0.03325554666666666,-0.00760924,-0.01042572,-157.98209371428572,-19.337679785714286,-3.6682392142857143
2024-06-06 12:12:07.205,42.781,0.0,3.79,52.334772,4.861978,0.0,0.69332,3.184249,9.266206,0.3075,-21.637502,-36.0150024,0.03386452,-0.00664696,-0.00996588,-157.97498642857144,-19.289344571428572,-3.6552744285714285
2024-06-06 12:12:07.221,42.781,0.0,3.79,52.334772,4.861978,0.0,0.7932205000000001,3.172285,9.156734,0.28125,-21.618752,-36.018753,0.034473493333333334,-0.0056846799999999975,-0.009506039999999999,-157.96787914285716,-19.241009357142858,-3.642309642857143
2024-06-06 12:12:07.225,42.781,0.0,3.79,52.334772,4.861978,0.0,0.893121,3.160321,9.047262,0.2953125,-21.5343765,-36.04687775,0.035082466666666666,-0.004722399999999998,-0.009046199999999999,-157.96077185714287,-19.192674142857143,-3.6293448571428573
2024-06-06 12:12:07.245,42.781,0.0,3.79,52.334772,4.861978,0.0,0.857229,3.279962,8.902496,0.309375,-21.450001,-36.0750025,0.03569144,-0.0037601199999999987,-0.00858636,-157.9536645714286,-19.14433892857143,-3.6163800714285714
2024-06-06 12:12:07.265,42.781,0.0,3.79,52.334772,4.861978,0.0,0.594018,3.354139,9.065208,0.32343750000000004,-21.3656255,-36.10312725,0.03630041333333334,-0.0027978399999999994,-0.008126519999999998,-157.9465572857143,-19.096003714285715,-3.6034152857142856
2024-06-06 12:12:07.281,42.781,0.0,3.79,52.334772,4.861978,0.0,0.509671,3.3655049999999997,9.1148595,0.3375,-21.28125,-36.131252,0.03690938666666667,-0.00183556,-0.007666679999999999,-157.93945000000002,-19.0476685,-3.5904505
2024-06-06 12:12:07.285,42.781,0.0,3.79,52.334772,4.861978,0.0,0.425324,3.376871,9.164511,0.3890625,-21.215625250000002,-36.131252,0.03751836,-0.0008732800000000006,-0.007206839999999999,-157.9323427142857,-18.999333285714286,-3.5774857142857144
2024-06-06 12:12:07.305,42.781,0.0,3.79,52.334772,4.861978,0.0,0.475574,3.337389,9.323035,0.440625,-21.1500005,-36.131252,0.03812733333333333,8.900000000000227e-05,-0.0067469999999999995,-157.92523542857143,-18.95099807142857,-3.5645209285714285
2024-06-06 12:12:07.325,42.781,0.0,3.79,52.334772,4.861978,0.0,0.279362,3.39721,9.477372,0.4921875,-21.08437575,-36.131252,0.038736306666666664,0.0010512800000000017,-0.00628716,-157.91812814285714,-18.902662857142857,-3.5515561428571427
2024-06-06 12:12:07.341,42.781,0.0,3.79,52.334772,4.861978,0.0,0.122333,3.449553,9.6245305,0.54375,-21.018751,-36.131252,0.039345279999999996,0.002013560000000001,-0.005827319999999999,-157.91102085714286,-18.854327642857143,-3.538591357142857
2024-06-06 12:12:07.345,42.781,0.0,3.79,52.334772,4.861978,0.0,-0.034696,3.501896,9.771689,0.5325,-20.992501,-36.131252,0.03995425333333333,0.0029758400000000004,-0.005367479999999999,-157.90391357142857,-18.80599242857143,-3.5256265714285715
2024-06-06 12:12:07.365,42.781,0.0,3.79,52.334772,4.861978,0.0,0.099302,3.212963,9.710672,0.52125,-20.966251,-36.131252,0.04056322666666667,0.00393812,-0.00490764,-157.8968062857143,-18.757657214285715,-3.5126617857142857
2024-06-06 12:12:07.375,42.781,0.0,3.79,52.334772,4.861978,0.0,0.3065805,2.9096725,9.6939225,0.51,-20.940001000000002,-36.131252,0.0411722,0.004900400000000003,-0.004447799999999998,-157.889699,-18.709322,-3.499697
2024-06-06 12:12:07.385,42.781,0.0,3.79,52.334772,4.861978,0.0,0.513859,2.606382,9.677173,0.49874999999999997,-20.913751,-36.131252,0.04178117333333334,0.005862680000000002,-0.003987959999999999,-157.97013914285714,-18.7854435,-3.4838497857142854
2024-06-06 12:12:07.401,42.781,0.0,3.79,52.334772,4.861978,0.0,0.27427749999999995,2.978466,9.4860465,0.4875,-20.887501,-36.131252,0.04239014666666667,0.0068249600000000014,-0.003528119999999999,-158.0505792857143,-18.861565,-3.4680025714285714
2024-06-06 12:12:07.405,42.781,0.0,3.79,52.334772,4.861978,0.0,0.034696,3.35055,9.29492,0.4921875,-20.8640635,-36.145314,0.04299912,0.007787240000000004,-0.0030682799999999996,-158.13101942857145,-18.9376865,-3.452155357142857
2024-06-06 12:12:07.425,42.781,0.0,3.79,52.334772,4.861978,0.0,-0.027517,3.488735,9.287741,0.49687499999999996,-20.840626,-36.159376,0.043608093333333334,0.00874952,-0.00260844,-158.21145957142858,-19.013808,-3.436308142857143
2024-06-06 12:12:07.445,42.781,0.0,3.79,52.334772,4.861978,0.0,-0.007178,3.439682,9.345767,0.5015625,-20.8171885,-36.173438000000004,0.044217066666666666,0.009711800000000003,-0.0021486000000000005,-158.2918997142857,-19.0899295,-3.4204609285714285
2024-06-06 12:12:07.461,42.781,0.0,3.79,52.334772,4.861978,0.0,0.075374,3.3400809999999996,9.418748,0.50625,-20.793751,-36.1875,0.04482604,0.010674079999999999,-0.001688760000000001,-158.37233985714286,-19.166051,-3.4046137142857145
2024-06-06 12:12:07.465,42.781,0.0,3.79,52.334772,4.861978,0.0,0.157926,3.24048,9.491729,0.5109375,-20.78906375,-36.2578125,0.04543501333333333,0.011636360000000002,-0.001228919999999998,-158.45278000000002,-19.242172500000002,-3.3887665
2024-06-06 12:12:07.485,42.781,0.0,3.79,52.334772,4.861978,0.0,0.191426,3.475575,9.308679,0.515625,-20.7843765,-36.328125,0.04604398666666666,0.012598640000000005,-0.0007690799999999984,-158.53322014285715,-19.318294,-3.3729192857142856
2024-06-06 12:12:07.505,42.781,0.0,3.79,52.334772,4.861978,0.0,0.227318,3.253641,9.622138,0.5203125,-20.77968925,-36.3984375,0.04665296,0.01356092,-0.0003092399999999988,-158.61366028571427,-19.3944155,-3.3570720714285716
2024-06-06 12:12:07.521,42.781,0.0,3.79,52.334772,4.861978,0.0,0.22133599999999998,3.3068809999999997,9.5677015,0.525,-20.775002,-36.46875,0.04726193333333333,0.014523200000000003,0.00015060000000000073,-158.69410042857143,-19.470537,-3.341224857142857
2024-06-06 12:12:07.525,42.781,0.0,3.79,52.334772,4.861978,0.0,0.215354,3.360121,9.513265,0.5025000000000001,-20.775002,-36.4800004,0.04787090666666667,0.01548548,0.0006104400000000003,-158.7745405714286,-19.5466585,-3.325377642857143
2024-06-06 12:12:07.545,42.781,0.0,3.79,52.334772,4.861978,0.0,0.200997,3.574877,9.260223,0.48,-20.775002,-36.4912508,0.04847988,0.016447760000000002,0.0010702799999999998,-158.85498071428572,-19.622780000000002,-3.3095304285714287
2024-06-06 12:12:07.565,42.781,0.0,3.79,52.334772,4.861978,0.0,0.015553,3.973282,9.242277,0.4575,-20.775002,-36.5025012,0.049088853333333335,0.017410040000000005,0.0015301199999999994,-158.93542085714284,-19.6989015,-3.2936832142857146
2024-06-06 12:12:07.575,42.781,0.0,3.79,52.334772,4.861978,0.0,0.030707666666666668,3.966901,9.172486666666666,0.435,-20.775002,-36.5137516,0.04969782666666667,0.01837232,0.0019899600000000024,-159.015861,-19.775023,-3.277836
2024-06-06 12:12:07.581,42.781,0.0,3.79,52.334772,4.861978,0.0,0.04586233333333334,3.9605200000000003,9.102696333333334,0.4125,-20.775002,-36.525002,0.0503068,0.019334600000000004,0.002449800000000002,-159.014749,-19.780019666666668,-3.111374666666667
2024-06-06 12:12:07.585,42.781,0.0,3.79,52.334772,4.861978,0.0,0.061017,3.954139,9.032906,0.46875,-20.770314,-36.553126750000004,0.05091577333333333,0.02029688,0.0029096400000000015,-159.013637,-19.785016333333335,-2.9449133333333335
2024-06-06 12:12:07.605,42.781,0.0,3.79,52.334772,4.861978,0.0,0.318844,3.885944,9.357731,0.5249999999999999,-20.765626,-36.5812515,0.05152474666666666,0.021259160000000003,0.003369480000000001,-159.012525,-19.790013000000002,-2.778452
2024-06-06 12:12:07.625,42.781,0.0,3.79,52.334772,4.861978,0.0,0.131605,3.963711,9.351749,0.5812499999999999,-20.760938000000003,-36.60937625,0.05213372,0.02222144,0.0038293200000000006,-159.011413,-19.795009666666665,-2.611990666666667
2024-06-06 12:12:07.641,42.781,0.0,3.79,52.334772,4.861978,0.0,0.1989035,3.8285165,9.140283499999999,0.6375,-20.75625,-36.637501,0.05274269333333333,0.02318372,0.00428916,-159.010301,-19.800006333333332,-2.4455293333333334
2024-06-06 12:12:07.645,42.781,0.0,3.79,52.334772,4.861978,0.0,0.266202,3.693322,8.928818,0.7171875,-20.75156275,-36.623439,0.053351666666666665,0.024146000000000004,0.004749,-159.009189,-19.805003,-2.279068
2024-06-06 12:12:07.665,42.781,0.0,3.79,52.334772,4.861978,0.0,0.428913,3.242873,8.650054,0.796875,-20.7468755,-36.609376999999995,0.053960640000000004,0.02510828,0.005208839999999999,-159.008077,-19.809999666666666,-2.1126066666666667
2024-06-06 12:12:07.685,42.781,0.0,3.79,52.334772,4.861978,0.0,0.528216,4.045067,8.883354,0.8765625,-20.74218825,-36.595315,0.054569613333333336,0.026070560000000003,0.005668679999999999,-159.006965,-19.814996333333333,-1.9461453333333334
2024-06-06 12:12:07.701,42.781,0.0,3.79,52.334772,4.861978,0.0,0.24795650000000002,4.076772,8.982058,0.95625,-20.737501,-36.581253,0.05517858666666667,0.02703284,0.006128520000000002,-159.005853,-19.819993,-1.779684
2024-06-06 12:12:07.705,42.781,0.0,3.79,52.334772,4.861978,0.0,-0.032303,4.108477,9.080762,1.05,-20.751563500000003,-36.53906525,0.05578756,0.027995120000000002,0.0065883600000000014,-159.004741,-19.824989666666667,-1.6132226666666667
2024-06-06 12:12:07.725,42.781,0.0,3.79,52.334772,4.861978,0.0,-0.210568,4.859225,9.387642,1.14375,-20.765626,-36.4968775,0.05639653333333333,0.028957400000000005,0.007048200000000001,-159.003629,-19.829986333333334,-1.4467613333333333
2024-06-06 12:12:07.745,42.781,0.0,3.79,52.334772,4.861978,0.0,0.039482,5.05424,8.522038,1.2375,-20.7796885,-36.45468975,0.057005506666666664,0.02991968,0.0075080400000000005,-159.00251699999998,-19.834982999999998,-1.2803
2024-06-06 12:12:07.761,42.781,0.0,3.79,52.334772,4.861978,0.0,-0.10947150000000001,5.058427,8.1693955,1.33125,-20.793751,-36.412502,0.05761448,0.030881960000000003,0.00796788,-159.001405,-19.839979666666665,-1.1138386666666666
2024-06-06 12:12:07.765,42.781,0.0,3.79,52.334772,4.861978,0.0,-0.258425,5.062614,7.816753,1.365,-20.8537508,-36.393752000000006,0.058223453333333335,0.031844239999999996,0.00842772,-159.000293,-19.84497633333333,-0.9473773333333333
2024-06-06 12:12:07.774,42.781,0.0,3.79,52.334772,4.861978,0.0,-0.185444,5.09073,8.0886375,1.39875,-20.9137506,-36.375002,0.058832426666666666,0.032806520000000006,0.00888756,-158.999181,-19.849973,-0.780916
2024-06-06 12:12:07.785,42.781,0.0,3.79,52.334772,4.861978,0.0,-0.112463,5.118846,8.360522,1.4325,-20.9737504,-36.356252000000005,0.0594414,0.0337688,0.009347400000000002,-159.03645528571428,-20.160806214285714,-0.8327720714285715
2024-06-06 12:12:07.805,42.781,0.0,3.79,52.334772,4.861978,0.0,-0.038285,5.066204,8.786445,1.46625,-21.0337502,-36.337502,0.06005037333333333,0.03473108,0.009807240000000002,-159.07372957142857,-20.47163942857143,-0.8846281428571429
2024-06-06 12:12:07.821,42.781,0.0,3.79,52.334772,4.861978,0.0,0.1061815,4.834099999999999,8.728419,1.5,-21.09375,-36.318752,0.06065934666666667,0.03569336000000001,0.010267080000000001,-159.11100385714286,-20.78247264285714,-0.9364842142857144
2024-06-06 12:12:07.825,42.781,0.0,3.79,52.334772,4.861978,0.0,0.250648,4.601996,8.670393,1.5328125,-21.13593775,-36.31406475,0.06126832,0.03665564,0.010726920000000001,-159.14827814285712,-21.093305857142855,-0.9883402857142858
2024-06-06 12:12:07.845,42.781,0.0,3.79,52.334772,4.861978,0.0,0.555733,4.21735,8.632108,1.565625,-21.1781255,-36.3093775,0.06187729333333333,0.03761792,0.01118676,-159.1855524285714,-21.40413907142857,-1.0401963571428572
2024-06-06 12:12:07.865,42.781,0.0,3.79,52.334772,4.861978,0.0,0.436092,4.027121,9.163314,1.5984375000000002,-21.22031325,-36.30469025,0.062486266666666665,0.038580199999999995,0.0116466,-159.2228267142857,-21.714972285714286,-1.0920524285714286
2024-06-06 12:12:07.881,42.781,0.0,3.79,52.334772,4.861978,0.0,0.4642075,3.8087755000000003,9.2515495,1.63125,-21.262501,-36.300003,0.06309524,0.039542480000000005,0.01210644,-159.260101,-22.025805499999997,-1.1439085
2024-06-06 12:12:07.885,42.781,0.0,3.79,52.334772,4.861978,0.0,0.492323,3.59043,9.339785,1.725,-21.33750075,-36.2296905,0.06370421333333334,0.04050476,0.012566279999999999,-159.29737528571428,-22.336638714285712,-1.1957645714285714
2024-06-06 12:12:07.905,42.781,0.0,3.79,52.334772,4.861978,0.0,0.094516,3.839284,9.320642,1.81875,-21.4125005,-36.159378,0.06431318666666666,0.04146704,0.013026119999999999,-159.33464957142857,-22.647471928571427,-1.2476206428571428
2024-06-06 12:12:07.925,42.781,0.0,3.79,52.334772,4.861978,0.0,0.328415,3.902694,9.103494,1.9125,-21.48750025,-36.0890655,0.06492216,0.04242931999999999,0.013485960000000002,-159.37192385714286,-22.958305142857142,-1.2994767142857144
2024-06-06 12:12:07.941,42.781,0.0,3.79,52.334772,4.861978,0.0,0.3667,3.9332025,9.025129,2.00625,-21.5625,-36.018753,0.06553113333333332,0.0433916,0.013945799999999998,-159.40919814285712,-23.269138357142857,-1.3513327857142858
2024-06-06 12:12:07.945,42.781,0.0,3.79,52.334772,4.861978,0.0,0.404985,3.963711,8.946764,2.0196428571428573,-21.624107428571428,-35.962502571428566,0.06614010666666667,0.04435388,0.01440564,-159.4464724285714,-23.57997157142857,-1.4031888571428572
2024-06-06 12:12:07.965,42.781,0.0,3.79,52.334772,4.861978,0.0,0.370289,4.016353,9.019745,2.0330357142857145,-21.68571485714286,-35.90625214285714,0.06674908,0.045316159999999994,0.014865479999999997,-159.4837467142857,-23.890804785714284,-1.4550449285714286
2024-06-06 12:12:07.974,42.781,0.0,3.79,52.334772,4.861978,0.0,0.337388,4.002594,9.045468,2.0464285714285717,-21.747322285714286,-35.85000171428571,0.06735805333333333,0.046278440000000004,0.01532532,-159.521021,-24.201638,-1.506901
2024-06-06 12:12:07.985,42.781,0.0,3.79,52.334772,4.861978,0.0,0.304487,3.988835,9.071191,2.0598214285714285,-21.808929714285714,-35.793751285714286,0.06796702666666667,0.04724072,0.015785160000000003,-159.46353131249998,-24.266184125,-1.5033505625
2024-06-06 12:12:07.993,42.781,0.0,3.79,52.334772,4.861978,0.0,0.3032905,3.9496525,9.130263750000001,2.0732142857142857,-21.870537142857142,-35.737500857142855,0.068576,0.048203,0.016245,-159.406041625,-24.33073025,-1.4998001250000002
2024-06-06 12:12:08.000,42.971,0.0,3.79,52.334775,4.861977,0.0,0.302094,3.91047,9.1893365,2.086607142857143,-21.932144571428573,-35.68125042857143,0.06618626666666666,0.04664061333333334,0.01564136,-159.3485519375,-24.395276374999998,-1.4962496875
2024-06-06 12:12:08.001,42.971,0.0,3.79,52.334775,4.861977,0.0,0.3008975,3.8712874999999998,9.24840925,2.1,-21.993752,-35.625,0.06379653333333334,0.04507822666666667,0.01503772,-159.29106224999998,-24.4598225,-1.49269925
2024-06-06 12:12:08.005,42.971,0.0,3.79,52.334775,4.861977,0.0,0.299701,3.832105,9.307482,2.1421875,-22.09218925,-35.498438,0.0614068,0.04351584,0.014434079999999998,-159.2335725625,-24.524368625,-1.4891488125
2024-06-06 12:12:08.025,42.971,0.0,3.79,52.334775,4.861977,0.0,0.554537,3.650251,9.067601,2.184375,-22.1906265,-35.371876,0.059017066666666666,0.041953453333333335,0.01383044,-159.176082875,-24.58891475,-1.485598375
2024-06-06 12:12:08.044,42.971,0.0,3.79,52.334775,4.861977,0.0,0.666999,3.565306,8.766106,2.2265625,-22.28906375,-35.245314,0.056627333333333335,0.04039106666666667,0.013226799999999999,-159.1185931875,-24.653460875,-1.4820479375
2024-06-06 12:12:08.061,42.971,0.0,3.79,52.334775,4.861977,0.0,0.5132605,3.5994035,9.0059865,2.26875,-22.387501,-35.118752,0.0542376,0.038828680000000004,0.012623159999999998,-159.0611035,-24.718007,-1.4784975
2024-06-06 12:12:08.065,42.971,0.0,3.79,52.334775,4.861977,0.0,0.359522,3.633501,9.245867,2.2546874999999997,-22.52343875,-34.996877,0.051847866666666666,0.03726629333333334,0.012019519999999999,-159.0036138125,-24.782553125,-1.4749470625
2024-06-06 12:12:08.085,42.971,0.0,3.79,52.334775,4.861977,0.0,0.151944,3.566502,9.680762,2.2406249999999996,-22.6593765,-34.875002,0.049458133333333335,0.03570390666666667,0.01141588,-158.946124125,-24.84709925,-1.4713966250000001
2024-06-06 12:12:08.105,42.971,0.0,3.79,52.334775,4.861977,0.0,0.202194,3.431308,9.795618,2.2265625,-22.79531425,-34.753127000000006,0.047068399999999996,0.03414152,0.010812239999999999,-158.8886344375,-24.911645375,-1.4678461875
2024-06-06 12:12:08.121,42.971,0.0,3.79,52.334775,4.861977,0.0,0.2300105,3.3460635,9.581460499999999,2.2125,-22.931252,-34.631252,0.044678666666666665,0.032579133333333336,0.010208599999999998,-158.83114475000002,-24.9761915,-1.46429575
2024-06-06 12:12:08.125,42.971,0.0,3.79,52.334775,4.861977,0.0,0.257827,3.260819,9.367303,2.18625,-23.0325016,-34.5487516,0.042288933333333334,0.031016746666666668,0.00960496,-158.7736550625,-25.040737625000002,-1.4607453125
2024-06-06 12:12:08.145,42.971,0.0,3.79,52.334775,4.861977,0.0,0.397807,3.008376,9.465408,2.1599999999999997,-23.1337512,-34.4662512,0.039899199999999996,0.029454360000000002,0.009001319999999998,-158.716165375,-25.10528375,-1.457194875
2024-06-06 12:12:08.165,42.971,0.0,3.79,52.334775,4.861977,0.0,0.399003,2.796612,9.259027,2.13375,-23.2350008,-34.3837508,0.037509466666666665,0.027891973333333334,0.00839768,-158.65867568750002,-25.169829875,-1.4536444375
2024-06-06 12:12:08.173,42.971,0.0,3.79,52.334775,4.861977,0.0,0.45244266666666666,2.741178,9.3681,2.1075,-23.3362504,-34.3012504,0.03511973333333333,0.02632958666666667,0.007794039999999999,-158.601186,-25.234376,-1.450094
2024-06-06 12:12:08.181,42.971,0.0,3.79,52.334775,4.861977,0.0,0.5058823333333333,2.685744,9.477172999999999,2.08125,-23.4375,-34.21875,0.032729999999999995,0.0247672,0.0071904,-158.5086934,-24.914961066666667,-1.4859348
2024-06-06 12:12:08.185,42.971,0.0,3.79,52.334775,4.861977,0.0,0.559322,2.63031,9.586246,2.0390625,-23.5218755,-34.1484375,0.030340266666666664,0.023204813333333334,0.006586759999999999,-158.4162008,-24.595546133333336,-1.5217756
2024-06-06 12:12:08.205,42.971,0.0,3.79,52.334775,4.861977,0.0,0.524626,2.734398,9.732208,1.996875,-23.606251,-34.078125,0.027950533333333333,0.02164242666666667,0.005983119999999998,-158.3237082,-24.276131200000002,-1.5576164
2024-06-06 12:12:08.225,42.971,0.0,3.79,52.334775,4.861977,0.0,0.689731,2.605186,9.515657,1.9546875,-23.6906265,-34.0078125,0.025560799999999995,0.02008004,0.005379479999999999,-158.2312156,-23.956716266666668,-1.5934572
2024-06-06 12:12:08.241,42.971,0.0,3.79,52.334775,4.861977,0.0,0.7615155,2.5292135,9.3849495,1.9125,-23.775002,-33.9375,0.023171066666666663,0.018517653333333335,0.004775839999999998,-158.138723,-23.637301333333333,-1.629298
2024-06-06 12:12:08.245,42.971,0.0,3.79,52.334775,4.861977,0.0,0.8333,2.453241,9.254242,1.9031250000000002,-23.765626750000003,-33.876563000000004,0.020781333333333332,0.016955266666666666,0.004172199999999999,-158.0462304,-23.317886400000003,-1.6651388
2024-06-06 12:12:08.265,42.971,0.0,3.79,52.334775,4.861977,0.0,0.497109,2.892324,9.659226,1.89375,-23.7562515,-33.815626,0.018391599999999994,0.015392879999999998,0.0035685599999999984,-157.9537378,-22.99847146666667,-1.7009796
2024-06-06 12:12:08.285,42.971,0.0,3.79,52.334775,4.861977,0.0,0.4002,3.209373,9.679565,1.884375,-23.74687625,-33.754689,0.016001866666666663,0.013830493333333332,0.0029649199999999994,-157.8612452,-22.679056533333334,-1.7368204
2024-06-06 12:12:08.301,42.971,0.0,3.79,52.334775,4.861977,0.0,0.479163,3.2249264999999996,9.562915,1.875,-23.737501,-33.693752,0.013612133333333332,0.012268106666666667,0.0023612799999999986,-157.7687526,-22.3596416,-1.7726612
2024-06-06 12:12:08.305,42.971,0.0,3.79,52.334775,4.861977,0.0,0.558126,3.24048,9.446265,1.8515625,-23.751563500000003,-33.6375015,0.011222399999999993,0.010705720000000002,0.0017576399999999978,-157.67626,-22.04022666666667,-1.808502
2024-06-06 12:12:08.325,42.971,0.0,3.79,52.334775,4.861977,0.0,0.781855,3.241677,9.26142,1.828125,-23.765626,-33.581251,0.008832666666666662,0.009143333333333337,0.0011539999999999988,-157.5837674,-21.720811733333335,-1.8443428
2024-06-06 12:12:08.345,42.971,0.0,3.79,52.334775,4.861977,0.0,0.78664,3.205784,9.442677,1.8046875,-23.7796885,-33.525000500000004,0.006442933333333331,0.0075809466666666644,0.0005503599999999997,-157.4912748,-21.4013968,-1.8801836
2024-06-06 12:12:08.361,42.971,0.0,3.79,52.334775,4.861977,0.0,0.7746759999999999,3.176472,9.4486585,1.78125,-23.793751,-33.46875,0.004053199999999993,0.006018559999999999,-5.328000000000277e-05,-157.3987822,-21.081981866666666,-1.9160244
2024-06-06 12:12:08.365,42.971,0.0,3.79,52.334775,4.861977,0.0,0.762712,3.14716,9.45464,1.72875,-23.7675008,-33.4537506,0.0016634666666666686,0.004456173333333334,-0.0006569200000000018,-157.3062896,-20.762566933333336,-1.9518651999999999
2024-06-06 12:12:08.373,42.971,0.0,3.79,52.334775,4.861977,0.0,0.744766,3.1076785,9.473783000000001,1.67625,-23.7412506,-33.4387512,-0.0007262666666666695,0.0028937866666666687,-0.0012605600000000008,-157.213797,-20.443152,-1.987706
2024-06-06 12:12:08.385,42.971,0.0,3.79,52.334775,4.861977,0.0,0.72682,3.068197,9.492926,1.62375,-23.7150004,-33.4237518,-0.0031160000000000077,0.0013313999999999965,-0.0018641999999999999,-157.20030935714286,-20.184814142857142,-2.101765
2024-06-06 12:12:08.405,42.971,0.0,3.79,52.334775,4.861977,0.0,0.702892,2.857628,9.671191,1.57125,-23.6887502,-33.4087524,-0.005505733333333332,-0.00023098666666666878,-0.0024678400000000024,-157.1868217142857,-19.926476285714287,-2.215824
2024-06-06 12:12:08.421,42.971,0.0,3.79,52.334775,4.861977,0.0,0.770489,3.01376,9.261719,1.51875,-23.6625,-33.393753,-0.00789546666666667,-0.001793373333333334,-0.0030714800000000014,-157.17333407142857,-19.66813842857143,-2.3298829999999997
2024-06-06 12:12:08.425,42.971,0.0,3.79,52.334775,4.861977,0.0,0.838086,3.169892,8.852247,1.5,-23.53125025,-33.4781275,-0.010285200000000008,-0.0033557599999999993,-0.0036751200000000005,-157.15984642857143,-19.409800571428573,-2.443942
2024-06-06 12:12:08.445,42.971,0.0,3.79,52.334775,4.861977,0.0,0.787837,3.374478,8.800801,1.4812500000000002,-23.4000005,-33.562501999999995,-0.012674933333333332,-0.0049181466666666646,-0.004278760000000003,-157.14635878571428,-19.151462714285714,-2.558001
2024-06-06 12:12:08.465,42.971,0.0,3.79,52.334775,4.861977,0.0,0.647857,3.224927,9.177671,1.4625000000000001,-23.268750750000002,-33.6468765,-0.01506466666666667,-0.006480533333333337,-0.004882400000000002,-157.13287114285714,-18.89312485714286,-2.67206
2024-06-06 12:12:08.481,42.971,0.0,3.79,52.334775,4.861977,0.0,0.679562,3.120839,9.3502535,1.44375,-23.137501,-33.731251,-0.01745440000000001,-0.008042920000000002,-0.005486040000000001,-157.1193835,-18.634787000000003,-2.786119
2024-06-06 12:12:08.485,42.971,0.0,3.79,52.334775,4.861977,0.0,0.711267,3.016751,9.522836,1.4015625,-22.9359385,-33.91406375,-0.019844133333333333,-0.009605306666666667,-0.00608968,-157.10589585714285,-18.376449142857144,-2.900178
2024-06-06 12:12:08.505,42.971,0.0,3.79,52.334775,4.861977,0.0,0.670589,3.208177,9.687941,1.359375,-22.734376,-34.0968765,-0.02223386666666667,-0.011167693333333333,-0.006693320000000003,-157.0924082142857,-18.118111285714285,-3.0142369999999996
2024-06-06 12:12:08.525,42.971,0.0,3.79,52.334775,4.861977,0.0,0.732802,3.430111,9.343374,1.3171875,-22.532813500000003,-34.279689250000004,-0.02462360000000001,-0.012730080000000005,-0.007296960000000002,-157.07892057142857,-17.85977342857143,-3.1282959999999997
2024-06-06 12:12:08.541,42.971,0.0,3.79,52.334775,4.861977,0.0,0.7896315,3.479762,9.2252285,1.275,-22.331251,-34.462502,-0.027013333333333334,-0.01429246666666667,-0.0079006,-157.06543292857143,-17.601435571428574,-3.242355
2024-06-06 12:12:08.545,42.971,0.0,3.79,52.334775,4.861977,0.0,0.846461,3.529413,9.107083,1.24875,-22.1662508,-34.6050022,-0.029403066666666672,-0.01585485333333333,-0.008504240000000003,-157.05194528571428,-17.343097714285715,-3.356414
2024-06-06 12:12:08.565,42.971,0.0,3.79,52.334775,4.861977,0.0,0.888335,3.427718,9.433105,1.2225,-22.001250600000002,-34.7475024,-0.03179280000000001,-0.017417240000000007,-0.009107880000000002,-157.03845764285714,-17.084759857142856,-3.470473
2024-06-06 12:12:08.573,42.971,0.0,3.79,52.334775,4.861977,0.0,0.902692,3.310171,9.494122,1.19625,-21.8362504,-34.890002599999995,-0.034182533333333334,-0.018979626666666673,-0.009711520000000001,-157.02497,-16.826422,-3.584532
2024-06-06 12:12:08.585,42.971,0.0,3.79,52.334775,4.861977,0.0,0.917049,3.192624,9.555139,1.17,-21.671250200000003,-35.032502799999996,-0.03657226666666667,-0.020542013333333338,-0.01031516,-157.04847657142858,-16.979406142857144,-3.663462571428571
2024-06-06 12:12:08.601,42.971,0.0,3.79,52.334775,4.861977,0.0,0.9212365,3.0849469999999997,9.4606225,1.14375,-21.50625,-35.175003,-0.03896200000000001,-0.022104400000000003,-0.010918800000000003,-157.07198314285714,-17.132390285714287,-3.742393142857143
2024-06-06 12:12:08.605,42.971,0.0,3.79,52.334775,4.861977,0.0,0.925424,2.97727,9.366106,1.115625,-21.33750025,-35.29687775,-0.041351733333333335,-0.02366678666666667,-0.011522440000000002,-157.09548971428572,-17.28537442857143,-3.821323714285714
2024-06-06 12:12:08.625,42.971,0.0,3.79,52.334775,4.861977,0.0,0.914656,3.040679,9.163314,1.0875,-21.1687505,-35.4187525,-0.04374146666666667,-0.025229173333333334,-0.012126080000000001,-157.11899628571427,-17.438358571428573,-3.9002542857142855
2024-06-06 12:12:08.645,42.971,0.0,3.79,52.334775,4.861977,0.0,0.907478,2.985644,9.133404,1.059375,-21.00000075,-35.54062725,-0.04613120000000001,-0.02679156,-0.012729720000000003,-157.14250285714286,-17.591342714285716,-3.979184857142857
2024-06-06 12:12:08.661,42.971,0.0,3.79,52.334775,4.861977,0.0,0.8045865,3.0634110000000003,9.269495500000001,1.03125,-20.831251,-35.662502,-0.048520933333333335,-0.028353946666666664,-0.013333360000000002,-157.1660094285714,-17.74432685714286,-4.058115428571428
2024-06-06 12:12:08.665,42.971,0.0,3.79,52.334775,4.861977,0.0,0.701695,3.141178,9.405587,1.003125,-20.728126000000003,-35.737502000000006,-0.050910666666666674,-0.02991633333333333,-0.013937000000000001,-157.189516,-17.897311000000002,-4.137046
2024-06-06 12:12:08.685,42.971,0.0,3.79,52.334775,4.861977,0.0,0.791426,3.059822,9.350553,0.975,-20.625001,-35.812502,-0.0533004,-0.03147872000000001,-0.01454064,-157.21302257142858,-18.05029514285714,-4.2159765714285715
2024-06-06 12:12:08.705,42.971,0.0,3.79,52.334775,4.861977,0.0,0.744766,3.075375,9.297313,0.9468749999999999,-20.521876,-35.887502,-0.055690133333333336,-0.033041106666666674,-0.01514428,-157.23652914285714,-18.203279285714284,-4.294907142857143
2024-06-06 12:12:08.721,42.971,0.0,3.79,52.334775,4.861977,0.0,0.7196415,3.124428,9.426824,0.91875,-20.418751,-35.962502,-0.058079866666666674,-0.03460349333333334,-0.015747920000000002,-157.26003571428572,-18.356263428571427,-4.373837714285714
2024-06-06 12:12:08.725,42.971,0.0,3.79,52.334775,4.861977,0.0,0.694517,3.173481,9.556335,0.8474999999999999,-20.3662508,-36.015002,-0.06046960000000001,-0.036165880000000004,-0.016351560000000005,-157.28354228571428,-18.50924757142857,-4.452768285714286
2024-06-06 12:12:08.745,42.971,0.0,3.79,52.334775,4.861977,0.0,0.704088,3.125625,9.48814,0.77625,-20.3137506,-36.067502000000005,-0.06285933333333335,-0.03772826666666667,-0.0169552,-157.30704885714286,-18.662231714285713,-4.531698857142857
2024-06-06 12:12:08.765,42.971,0.0,3.79,52.334775,4.861977,0.0,0.688535,3.005983,9.443872,0.705,-20.2612504,-36.120002,-0.06524906666666666,-0.039290653333333335,-0.017558840000000003,-157.33055542857142,-18.815215857142856,-4.610629428571428
2024-06-06 12:12:08.772,42.971,0.0,3.79,52.334775,4.861977,0.0,0.70688,3.004388,9.516055666666666,0.63375,-20.2087502,-36.172502,-0.0676388,-0.04085304,-0.018162480000000005,-157.354062,-18.9682,-4.68956
2024-06-06 12:12:08.781,42.971,0.0,3.79,52.334775,4.861977,0.0,0.725225,3.002793,9.588239333333334,0.5625,-20.15625,-36.225002,-0.07002853333333334,-0.042415426666666665,-0.01876612,-157.3496752,-18.906591266666666,-4.695187866666667
2024-06-06 12:12:08.785,42.971,0.0,3.79,52.334775,4.861977,0.0,0.74357,3.001198,9.660423,0.525,-20.1328125,-36.26718975,-0.07241826666666668,-0.04397781333333333,-0.019369760000000003,-157.3452884,-18.844982533333333,-4.700815733333333
2024-06-06 12:12:08.805,42.971,0.0,3.79,52.334775,4.861977,0.0,0.705284,3.009573,9.431909,0.4875,-20.109375,-36.3093775,-0.07480800000000001,-0.04554020000000001,-0.0199734,-157.3409016,-18.7833738,-4.7064436
2024-06-06 12:12:08.825,42.971,0.0,3.79,52.334775,4.861977,0.0,0.763909,2.961716,9.326625,0.44999999999999996,-20.0859375,-36.35156525,-0.07719773333333335,-0.047102586666666675,-0.02057704,-157.3365148,-18.721765066666666,-4.712071466666667
2024-06-06 12:12:08.841,42.971,0.0,3.79,52.334775,4.861977,0.0,0.7507485,2.9808585,9.409177,0.4125,-20.0625,-36.393753,-0.07958746666666666,-0.04866497333333334,-0.021180680000000004,-157.332128,-18.660156333333333,-4.717699333333333
2024-06-06 12:12:08.845,42.971,0.0,3.79,52.334775,4.861977,0.0,0.737588,3.000001,9.491729,0.36093749999999997,-20.0390625,-36.473440249999996,-0.0819772,-0.050227360000000006,-0.02178432,-157.3277412,-18.5985476,-4.7233272
2024-06-06 12:12:08.865,42.971,0.0,3.79,52.334775,4.861977,0.0,0.701695,3.021537,9.482158,0.30937499999999996,-20.015625,-36.5531275,-0.08436693333333334,-0.05178974666666667,-0.022387960000000002,-157.3233544,-18.536938866666667,-4.728955066666667
2024-06-06 12:12:08.885,42.971,0.0,3.79,52.334775,4.861977,0.0,0.626321,3.051447,9.543175,0.2578125,-19.9921875,-36.63281475,-0.08675666666666668,-0.053352133333333336,-0.022991600000000004,-157.3189676,-18.475330133333333,-4.734582933333333
2024-06-06 12:12:08.901,42.971,0.0,3.79,52.334775,4.861977,0.0,0.6472585,3.0436705,9.455238999999999,0.20625,-19.96875,-36.712502,-0.08914640000000001,-0.05491452,-0.02359524,-157.31458080000002,-18.4137214,-4.7402108
2024-06-06 12:12:08.905,42.971,0.0,3.79,52.334775,4.861977,0.0,0.668196,3.035894,9.367303,0.1875,-19.973437750000002,-36.684377,-0.09153613333333332,-0.05647690666666667,-0.024198880000000002,-157.310194,-18.352112666666667,-4.745838666666667
2024-06-06 12:12:08.925,42.971,0.0,3.79,52.334775,4.861977,0.0,0.716052,2.938984,9.275777,0.16875,-19.9781255,-36.656252,-0.09392586666666666,-0.05803929333333333,-0.024802520000000005,-157.3058072,-18.290503933333333,-4.751466533333333
2024-06-06 12:12:08.945,42.971,0.0,3.79,52.334775,4.861977,0.0,0.755534,2.845664,9.449855,0.15,-19.98281325,-36.628127000000006,-0.0963156,-0.05960168000000001,-0.02540616,-157.3014204,-18.2288952,-4.7570944
2024-06-06 12:12:08.961,42.971,0.0,3.79,52.334775,4.861977,0.0,0.7483555,2.8797620000000004,9.467202499999999,0.13125,-19.987501,-36.600002,-0.09870533333333334,-0.061164066666666676,-0.026009800000000003,-157.29703360000002,-18.167286466666667,-4.762722266666667
2024-06-06 12:12:08.965,42.971,0.0,3.79,52.334775,4.861977,0.0,0.741177,2.91386,9.48455,0.10312500000000001,-20.028126,-36.58125216666667,-0.10109506666666668,-0.06272645333333335,-0.02661344,-157.2926468,-18.105677733333334,-4.768350133333333
2024-06-06 12:12:08.971,42.971,0.0,3.79,52.334775,4.861977,0.0,0.6825525,2.92044,9.5013,0.07500000000000001,-20.068751000000002,-36.562502333333335,-0.10348480000000002,-0.06428884000000001,-0.02721708,-157.28826,-18.044069,-4.773978
2024-06-06 12:12:08.985,42.971,0.0,3.79,52.334775,4.861977,0.0,0.623928,2.92702,9.51805,0.046875,-20.109376,-36.5437525,-0.10587453333333333,-0.06585122666666668,-0.027820720000000004,-157.2788744,-18.006520733333332,-4.7355924
2024-06-06 12:12:09.005,42.971,0.0,3.79,52.334775,4.861977,0.0,0.64666,2.909074,9.544372,0.018750000000000003,-20.150001,-36.525002666666666,-0.10826426666666666,-0.06741361333333334,-0.02842436,-157.2694888,-17.968972466666667,-4.6972068
2024-06-06 12:12:09.007,42.971,0.0,3.79,52.334775,4.861977,0.0,0.6438683333333334,2.9258236666666666,9.530413666666666,-0.009374999999999994,-20.190626,-36.506252833333335,-0.110654,-0.068976,-0.029028,-157.2601032,-17.9314242,-4.658821199999999
2024-06-06 12:12:09.021,42.971,0.0,3.79,52.334775,4.861977,0.0,0.6410766666666666,2.9425733333333333,9.516455333333333,-0.0375,-20.231251,-36.487503,-0.10923304109589041,-0.0682044109589041,-0.028836479452054795,-157.2507176,-17.893875933333334,-4.6204355999999995
2024-06-06 12:12:09.025,42.971,0.0,3.79,52.334775,4.861977,0.0,0.638285,2.959323,9.502497,-0.046875,-20.2546885,-36.45469,-0.10781208219178083,-0.06743282191780821,-0.02864495890410959,-157.241332,-17.856327666666665,-4.58205
2024-06-06 12:12:09.045,42.971,0.0,3.79,52.334775,4.861977,0.0,0.60359,2.982055,9.466604,-0.056249999999999994,-20.278126,-36.421876999999995,-0.10639112328767124,-0.06666123287671233,-0.028453438356164384,-157.2319464,-17.8187794,-4.5436644
2024-06-06 12:12:09.065,42.971,0.0,3.79,52.334775,4.861977,0.0,0.69691,2.933002,9.45464,-0.06562499999999999,-20.3015635,-36.389064,-0.10497016438356165,-0.06588964383561643,-0.02826191780821918,-157.2225608,-17.781231133333332,-4.5052788
2024-06-06 12:12:09.081,42.971,0.0,3.79,52.334775,4.861977,0.0,0.7022935,2.9102705,9.451649,-0.075,-20.325001,-36.356251,-0.10354920547945205,-0.06511805479452054,-0.028070397260273973,-157.21317520000002,-17.743682866666667,-4.4668931999999995
2024-06-06 12:12:09.085,42.971,0.0,3.79,52.334775,4.861977,0.0,0.707677,2.887539,9.448658,-0.10781249999999999,-20.32968825,-36.37500125,-0.10212824657534247,-0.06434646575342465,-0.02787887671232877,-157.20378960000002,-17.7061346,-4.4285076
2024-06-06 12:12:09.105,42.971,0.0,3.79,52.334775,4.861977,0.0,0.698106,2.753541,9.391231,-0.140625,-20.3343755,-36.3937515,-0.10070728767123288,-0.06357487671232877,-0.027687356164383562,-157.19440400000002,-17.668586333333334,-4.390122
2024-06-06 12:12:09.125,42.971,0.0,3.79,52.334775,4.861977,0.0,0.64666,2.864807,9.376874,-0.17343749999999997,-20.33906275,-36.412501750000004,-0.09928632876712329,-0.06280328767123287,-0.02749583561643836,-157.18501840000002,-17.631038066666665,-4.3517364
2024-06-06 12:12:09.141,42.971,0.0,3.79,52.334775,4.861977,0.0,0.6478565000000001,2.9240294999999996,9.3708915,-0.20625,-20.34375,-36.431252,-0.0978653698630137,-0.06203169863013698,-0.02730431506849315,-157.17563280000002,-17.5934898,-4.3133508
2024-06-06 12:12:09.145,42.971,0.0,3.79,52.334775,4.861977,0.0,0.649053,2.983252,9.364909,-0.2475,-20.31375,-36.4612522,-0.09644441095890412,-0.061260109589041094,-0.027112794520547948,-157.16624720000002,-17.555941533333332,-4.2749652
2024-06-06 12:12:09.165,42.971,0.0,3.79,52.334775,4.861977,0.0,0.607179,3.05384,9.38166,-0.28874999999999995,-20.28375,-36.4912524,-0.09502345205479452,-0.0604885205479452,-0.02692127397260274,-157.1568616,-17.518393266666667,-4.2365796
2024-06-06 12:12:09.171,42.971,0.0,3.79,52.334775,4.861977,0.0,0.5850455,2.9623144999999997,9.4187485,-0.32999999999999996,-20.25375,-36.5212526,-0.09360249315068493,-0.05971693150684931,-0.026729753424657537,-157.147476,-17.480845,-4.198194
2024-06-06 12:12:09.185,42.971,0.0,3.79,52.334775,4.861977,0.0,0.562912,2.870789,9.455837,-0.37124999999999997,-20.223750000000003,-36.5512528,-0.09218153424657535,-0.05894534246575342,-0.02653823287671233,-157.14310564285717,-17.463877928571428,-4.180635714285715
2024-06-06 12:12:09.201,42.971,0.0,3.79,52.334775,4.861977,0.0,0.6263215,2.8462625,9.3870435,-0.4125,-20.19375,-36.581253,-0.09076057534246576,-0.05817375342465753,-0.026346712328767126,-157.1387352857143,-17.446910857142857,-4.1630774285714285
2024-06-06 12:12:09.205,42.971,0.0,3.79,52.334775,4.861977,0.0,0.689731,2.821736,9.31825,-0.3515625,-20.198438000000003,-36.6046905,-0.08933961643835617,-0.05740216438356164,-0.02615519178082192,-157.13436492857144,-17.429943785714286,-4.145519142857143
2024-06-06 12:12:09.225,42.971,0.0,3.79,52.334775,4.861977,0.0,0.651446,2.687738,9.33141,-0.290625,-20.203126,-36.628128,-0.08791865753424657,-0.05663057534246575,-0.02596367123287671,-157.12999457142857,-17.412976714285712,-4.127960857142857
2024-06-06 12:12:09.245,42.971,0.0,3.79,52.334775,4.861977,0.0,0.193819,3.339782,10.399207,-0.2296875,-20.207814,-36.6515655,-0.08649769863013698,-0.05585898630136986,-0.025772150684931508,-157.12562421428572,-17.39600964285714,-4.110402571428572
2024-06-06 12:12:09.261,42.971,0.0,3.79,52.334775,4.861977,0.0,0.20159549999999998,3.248855,10.199107000000001,-0.16875,-20.212502,-36.675003,-0.0850767397260274,-0.05508739726027397,-0.025580630136986304,-157.12125385714285,-17.37904257142857,-4.0928442857142855
2024-06-06 12:12:09.265,42.971,0.0,3.79,52.334775,4.861977,0.0,0.209372,3.157928,9.999007,-0.1640625,-20.151564,-36.707815249999996,-0.08365578082191781,-0.05431580821917808,-0.025389109589041097,-157.1168835,-17.3620755,-4.075286
2024-06-06 12:12:09.285,42.971,0.0,3.79,52.334775,4.861977,0.0,0.326022,2.626721,9.833903,-0.159375,-20.090626,-36.7406275,-0.08223482191780822,-0.05354421917808219,-0.02519758904109589,-157.11251314285715,-17.34510842857143,-4.057727714285714
2024-06-06 12:12:09.305,42.971,0.0,3.79,52.334775,4.861977,0.0,1.064208,2.697309,8.927621,-0.1546875,-20.029688,-36.77343975,-0.08081386301369864,-0.0527726301369863,-0.025006068493150686,-157.10814278571428,-17.328141357142858,-4.040169428571429
2024-06-06 12:12:09.321,42.971,0.0,3.79,52.334775,4.861977,0.0,1.073181,3.0756745,8.900701999999999,-0.15,-19.96875,-36.806252,-0.07939290410958905,-0.052001041095890405,-0.02481454794520548,-157.10377242857143,-17.311174285714287,-4.0226111428571425
2024-06-06 12:12:09.325,42.971,0.0,3.79,52.334775,4.861977,0.0,1.082154,3.45404,8.873783,-0.105,-19.95,-36.787502,-0.07797194520547945,-0.05122945205479452,-0.024623027397260275,-157.09940207142856,-17.294207214285713,-4.005052857142857
2024-06-06 12:12:09.345,42.971,0.0,3.79,52.334775,4.861977,0.0,1.34357,3.60718,8.907282,-0.06,-19.93125,-36.768752,-0.07655098630136986,-0.05045786301369863,-0.02443150684931507,-157.0950317142857,-17.277240142857142,-3.9874945714285714
2024-06-06 12:12:09.365,42.971,0.0,3.79,52.334775,4.861977,0.0,1.424926,3.099303,8.330612,-0.014999999999999986,-19.9125,-36.750002,-0.07513002739726027,-0.04968627397260274,-0.024239986301369865,-157.09066135714284,-17.26027307142857,-3.9699362857142857
2024-06-06 12:12:09.371,42.971,0.0,3.79,52.334775,4.861977,0.0,1.3886346666666667,3.092922333333333,8.447062666666667,0.03,-19.89375,-36.731252,-0.07370906849315069,-0.048914684931506844,-0.024048465753424658,-157.086291,-17.243306,-3.952378
2024-06-06 12:12:09.381,42.971,0.0,3.79,52.334775,4.861977,0.0,1.3523433333333332,3.0865416666666667,8.563513333333333,0.075,-19.875,-36.712502,-0.0722881095890411,-0.04814309589041096,-0.023856945205479454,-157.05156813333332,-17.2611804,-3.9275256
2024-06-06 12:12:09.385,42.971,0.0,3.79,52.334775,4.861977,0.0,1.316052,3.080161,8.679964,0.042187499999999996,-19.884375,-36.740626750000004,-0.07086715068493152,-0.04737150684931507,-0.023665424657534247,-157.01684526666665,-17.2790548,-3.9026731999999997
2024-06-06 12:12:09.405,42.971,0.0,3.79,52.334775,4.861977,0.0,1.19342,3.105286,9.122637,0.009374999999999994,-19.89375,-36.7687515,-0.06944619178082193,-0.04659991780821918,-0.023473904109589043,-156.98212239999998,-17.2969292,-3.8778208
2024-06-06 12:12:09.425,42.971,0.0,3.79,52.334775,4.861977,0.0,0.937388,3.009573,9.270991,-0.023437500000000014,-19.903125000000003,-36.79687625,-0.06802523287671233,-0.04582832876712328,-0.023282383561643836,-156.94739953333334,-17.3148036,-3.8529684
2024-06-06 12:12:09.441,42.971,0.0,3.79,52.334775,4.861977,0.0,0.8159525000000001,3.0263225,9.4351985,-0.05625,-19.9125,-36.825001,-0.06660427397260274,-0.045056739726027396,-0.02309086301369863,-156.91267666666667,-17.332678,-3.828116
2024-06-06 12:12:09.445,42.971,0.0,3.79,52.334775,4.861977,0.0,0.694517,3.043072,9.599406,-0.0609375,-19.893750500000003,-36.829688250000004,-0.06518331506849315,-0.04428515068493151,-0.022899342465753425,-156.8779538,-17.3505524,-3.8032635999999997
2024-06-06 12:12:09.465,42.971,0.0,3.79,52.334775,4.861977,0.0,0.682553,3.061018,9.826724,-0.065625,-19.875001,-36.8343755,-0.06376235616438357,-0.043513561643835616,-0.02270782191780822,-156.84323093333333,-17.3684268,-3.7784112
2024-06-06 12:12:09.485,42.971,0.0,3.79,52.334775,4.861977,0.0,0.694517,3.002394,9.965508,-0.0703125,-19.8562515,-36.83906275,-0.062341397260273976,-0.04274197260273972,-0.022516301369863014,-156.80850806666666,-17.3863012,-3.7535588
2024-06-06 12:12:09.501,42.971,0.0,3.79,52.334775,4.861977,0.0,0.6897310000000001,3.0382865,9.9619185,-0.075,-19.837502,-36.84375,-0.06092043835616439,-0.041970383561643836,-0.022324780821917807,-156.7737852,-17.4041756,-3.7287064
2024-06-06 12:12:09.505,42.971,0.0,3.79,52.334775,4.861977,0.0,0.684945,3.074179,9.958329,-0.075,-19.828126750000003,-36.81562525,-0.0594994794520548,-0.04119879452054795,-0.022133260273972603,-156.73906233333332,-17.42205,-3.7038539999999998
2024-06-06 12:12:09.525,42.971,0.0,3.79,52.334775,4.861977,0.0,0.862014,3.004787,9.513265,-0.075,-19.8187515,-36.7875005,-0.05807852054794521,-0.040427205479452055,-0.021941739726027396,-156.70433946666665,-17.4399244,-3.6790016
2024-06-06 12:12:09.545,42.971,0.0,3.79,52.334775,4.861977,0.0,0.970888,3.00718,9.360124,-0.075,-19.80937625,-36.759375750000004,-0.05665756164383562,-0.03965561643835616,-0.021750219178082193,-156.6696166,-17.4577988,-3.6541492
2024-06-06 12:12:09.561,42.971,0.0,3.79,52.334775,4.861977,0.0,0.9583254999999999,3.0197425,9.3493565,-0.075,-19.800001,-36.731251,-0.05523660273972603,-0.038884027397260275,-0.021558698630136985,-156.63489373333334,-17.4756732,-3.6292967999999997
2024-06-06 12:12:09.565,42.971,0.0,3.79,52.334775,4.861977,0.0,0.945763,3.032305,9.338589,-0.03,-19.7887512,-36.6787508,-0.05381564383561644,-0.03811243835616439,-0.02136717808219178,-156.60017086666667,-17.4935476,-3.6044443999999998
2024-06-06 12:12:09.570,42.971,0.0,3.79,52.334775,4.861977,0.0,0.9523435,2.9533415,9.310174,0.015,-19.777501400000002,-36.6262506,-0.052394684931506855,-0.037340849315068494,-0.021175657534246575,-156.565448,-17.511422,-3.579592
2024-06-06 12:12:09.585,42.971,0.0,3.79,52.334775,4.861977,0.0,0.958924,2.874378,9.281759,0.06000000000000001,-19.7662516,-36.5737504,-0.05097372602739726,-0.0365692602739726,-0.020984136986301367,-156.5564995,-17.553966,-3.739075785714286
2024-06-06 12:12:09.605,42.971,0.0,3.79,52.334775,4.861977,0.0,0.921835,3.000001,9.223135,0.105,-19.755001800000002,-36.5212502,-0.049552767123287676,-0.035797671232876714,-0.020792616438356164,-156.547551,-17.59651,-3.8985595714285712
2024-06-06 12:12:09.621,42.971,0.0,3.79,52.334775,4.861977,0.0,0.909871,3.0119655,9.286245999999998,0.15,-19.743752,-36.46875,-0.04813180821917809,-0.03502608219178082,-0.02060109589041096,-156.5386025,-17.639053999999998,-4.058043357142857
